time,seconds_elapsed,z,y,x
1710940771749393400,0.108393310546875,-0.6026489734649658,-0.2209089994430542,-0.04085699841380119
1710940771805813800,0.164813720703125,-0.6026489734649658,-0.2209089994430542,-0.04085699841380119
1710940771862233900,0.22123388671875,-0.42809000611305237,0.3361490070819855,0.1986909955739975
1710940771918654200,0.277654296875,-0.3533630073070526,0.5696700215339661,-0.18892499804496765
1710940771975074600,0.334074462890625,0.854328989982605,-0.3613489866256714,-0.7852060198783875
1710940772031495000,0.390494873046875,-0.4803850054740906,0.7324569821357727,0.014194999821484089
1710940772087915000,0.4469150390625,0.850600004196167,-0.7023169994354248,-0.9099180102348328
1710940772144335400,0.50333544921875,-0.034258000552654266,0.20492899417877197,0.31441399455070496
1710940772200755700,0.559755615234375,0.149044007062912,-0.038182999938726425,0.0963589996099472
1710940772257176000,0.616176025390625,-0.2603659927845001,-0.2926180064678192,0.13089899718761444
1710940772313596200,0.67259619140625,-1.1630630493164062,0.3405880033969879,0.48847898840904236
1710940772370016500,0.7290166015625,-0.19296999275684357,-0.08751700073480606,0.6042839884757996
1710940772426436600,0.7854365234375,0.2503109872341156,0.48530301451683044,0.8552330136299133
1710940772482857000,0.84185693359375,-1.3575960397720337,-0.02745399996638298,0.2004539966583252
1710940772539277300,0.89827734375,-0.41104599833488464,0.04405700042843819,0.05742400139570236
1710940772595697700,0.95469775390625,0.8105660080909729,0.5592129826545715,-0.6028940081596375
1710940772652118000,1.011117919921875,0.11244499683380127,-0.4265590012073517,0.3555920124053955
1710940772708538000,1.0675380859375,-0.5120030045509338,0.07872799783945084,-0.6300250291824341
1710940772764958500,1.12395849609375,0.12799899280071259,0.24712799489498138,0.02356399968266487
1710940772821378800,1.18037890625,-0.19624100625514984,0.11123800277709961,-0.624879002571106
1710940772877799200,1.236799072265625,-0.24374200403690338,0.0809670016169548,0.11193399876356125
1710940772934219300,1.29321923828125,0.7705379724502563,-0.10276100039482117,0.5880709886550903
1710940772990639400,1.349639404296875,0.1805409938097,0.07349500060081482,-0.37692001461982727
1710940773047059700,1.406059814453125,-0.2414730042219162,-0.018404999747872353,0.1740970015525818
1710940773103480000,1.46247998046875,-0.39243000745773315,0.008596000261604786,0.16634799540042877
1710940773159900400,1.518900390625,0.22266699373722076,0.004356000106781721,0.037408001720905304
1710940773216320500,1.575320556640625,0.6049450039863586,-0.22590799629688263,0.42579999566078186
1710940773272740900,1.631740966796875,0.1911890059709549,-0.012392000295221806,0.08555299788713455
1710940773329161200,1.6881611328125,0.36621901392936707,-0.07487300038337708,-0.23224599659442902
1710940773385581600,1.74458154296875,0.2680000066757202,-0.09721700102090836,0.1840820014476776
1710940773442001700,1.801001708984375,0.33511099219322205,-0.1164959967136383,0.01897300034761429
1710940773498422000,1.857422119140625,-0.3204759955406189,0.06049500033259392,0.10364700108766556
1710940773554842400,1.91384228515625,-0.3459179997444153,0.016735000535845757,0.1415109932422638
1710940773611262500,1.970262451171875,-0.09945899993181229,-0.06660400331020355,0.005816999822854996
1710940773667682800,2.026682861328125,0.18162600696086884,-0.09461499750614166,-0.039372000843286514
1710940773724103200,2.083103271484375,0.35959601402282715,-0.05677900090813637,0.2742300033569336
1710940773780523300,2.139523193359375,0.05964000150561333,-0.14589400589466095,0.0013439999893307686
1710940773836943600,2.195943603515625,-0.1506589949131012,-0.049538999795913696,0.23335200548171997
1710940773893363700,2.25236376953125,-0.021594999358057976,-0.07596699893474579,0.2076909989118576
1710940773949784000,2.3087841796875,0.10514599829912186,-0.10965699702501297,0.0726030021905899
1710940774006204400,2.365204345703125,-0.03163300082087517,-0.10014799982309341,0.05817599967122078
1710940774062624800,2.421624755859375,0.06266599893569946,-0.04476200044155121,0.03019700013101101
1710940774119044900,2.478044921875,-0.02493100054562092,-0.07536300271749496,0.1696700006723404
1710940774175465200,2.53446533203125,0.11822400242090225,-0.10819999873638153,0.3177430033683777
1710940774231885600,2.590885498046875,0.048645999282598495,-0.18695299327373505,0.14047600328922272
1710940774288305700,2.6473056640625,0.04714599996805191,-0.15250399708747864,0.04916800186038017
1710940774344726000,2.70372607421875,0.05879700183868408,-0.15544499456882477,0.07674899697303772
1710940774401146000,2.76014599609375,-0.1310970038175583,-0.12077599763870239,-0.006031000055372715
1710940774457566500,2.81656640625,-0.012803999707102776,-0.13928300142288208,0.03012399934232235
1710940774513986800,2.87298681640625,0.016140999272465706,-0.062327999621629715,-0.13403600454330444
1710940774570407200,2.9294072265625,0.24893400073051453,-0.013187999837100506,-0.11497999727725983
1710940774626827300,2.9858271484375,0.08915899693965912,0.03336700052022934,-0.14694799482822418
1710940774683247600,3.04224755859375,0.1447329968214035,0.013484999537467957,-0.23667000234127045
1710940774739668000,3.09866796875,0.10536900162696838,0.041877999901771545,-0.2031169980764389
1710940774796088000,3.155088134765625,0.21449799835681915,0.021781999617815018,-0.1137470006942749
1710940774852508400,3.21150830078125,-0.17943799495697021,0.06525199860334396,-0.06521599739789963
1710940774908928800,3.2679287109375,-0.024243999272584915,-0.07358500361442566,0.03068999946117401
1710940774965349000,3.32434912109375,-0.056421998888254166,-0.06852199882268906,0.005954999942332506
1710940775021769200,3.380769287109375,0.1588519960641861,-0.15406200289726257,-0.002377999946475029
1710940775078189600,3.437189453125,-0.0730229988694191,-0.04257199913263321,-0.14211900532245636
1710940775134610000,3.49360986328125,0.12098799645900726,-0.07837799936532974,-0.19022999703884125
1710940775191030300,3.5500302734375,0.019353000447154045,-0.047756001353263855,-0.2861579954624176
1710940775247450400,3.606450439453125,0.0644880011677742,0.04042699933052063,-0.26634401082992554
1710940775303870700,3.66287060546875,-0.12790200114250183,0.013175000436604023,-0.09580300003290176
1710940775360290800,3.719290771484375,0.2421170026063919,-0.19080500304698944,0.08091200143098831
1710940775416711200,3.775711181640625,0.5499169826507568,-0.1126440018415451,0.15043500065803528
1710940775473131500,3.832131591796875,-0.5467020273208618,-0.042539000511169434,0.3746730089187622
1710940775529551600,3.888551513671875,0.32391899824142456,-0.21606199443340302,0.21570800244808197
1710940775585972000,3.944971923828125,0.014746000058948994,-0.12904299795627594,0.19333599507808685
1710940775642392300,4.001392333984375,-0.03215799853205681,-0.12134700268507004,0.22117100656032562
1710940775698812700,4.057812744140625,0.1610189974308014,-0.19927099347114563,0.25967198610305786
1710940775755233000,4.11423291015625,-0.0361270010471344,-0.20109599828720093,0.05350299924612045
1710940775811653000,4.170653076171875,-0.11132699996232986,-0.19600500166416168,-0.029032999649643898
1710940775868073500,4.227073486328125,-0.004172000102698803,-0.20216499269008636,0.13123300671577454
1710940775924493600,4.28349365234375,0.03333599865436554,-0.22956900298595428,0.18801599740982056
1710940775980914000,4.339913818359375,0.04169199988245964,-0.327582985162735,0.15821599960327148
1710940776037334300,4.396334228515625,0.011579000391066074,-0.17923599481582642,0.4138469994068146
1710940776093754400,4.45275439453125,0.1341630071401596,-0.13018600642681122,0.36758899688720703
1710940776150174700,4.5091748046875,-0.2512190043926239,-0.06018500030040741,0.6762400269508362
1710940776206595000,4.565594970703125,0.04796599969267845,-0.19484500586986542,0.7676569819450378
1710940776263015400,4.622015380859375,0.607010006904602,-0.22915500402450562,0.5605980157852173
1710940776319435800,4.678435791015625,-0.28975701332092285,0.05192499980330467,0.389508992433548
1710940776375855900,4.73485595703125,-0.034676000475883484,0.12518000602722168,0.2928299903869629
1710940776432276200,4.791276123046875,0.17543600499629974,0.08617600053548813,0.0011500000255182385
1710940776488696300,4.8476962890625,0.3787899911403656,-0.06323699653148651,-0.18343399465084076
1710940776545116700,4.90411669921875,0.21211199462413788,-0.042238999158144,-0.12449599802494049
1710940776601537000,4.960537109375,-0.0713379979133606,-0.0027459999546408653,0.044867001473903656
1710940776657957400,5.016957275390625,0.08453600108623505,-0.06089799851179123,0.15187500417232513
1710940776714377500,5.07337744140625,-0.02748899906873703,0.020015999674797058,0.32346200942993164
1710940776770797800,5.1297978515625,0.17695200443267822,-0.0720909982919693,0.47433000802993774
1710940776827218200,5.18621826171875,0.1638209968805313,-0.0637269988656044,0.5341290235519409
1710940776883638500,5.242638427734375,-0.08868599683046341,-0.1139570027589798,0.6305789947509766
1710940776940058600,5.29905859375,0.19596299529075623,-0.11292500048875809,0.5320500135421753
1710940776996479000,5.35547900390625,0.03195999935269356,-0.18827299773693085,0.4564230144023895
1710940777052899300,5.4118994140625,0.10482600331306458,-0.1190510019659996,0.527571976184845
1710940777109319400,5.4683193359375,0.031231999397277832,-0.09196099638938904,0.5392590165138245
1710940777165740000,5.524739990234375,0.3568029999732971,-0.5065590143203735,0.18045899271965027
1710940777222160100,5.58116015625,0.14504000544548035,-0.23746399581432343,-0.15056300163269043
1710940777278580500,5.63758056640625,-0.7008110284805298,-0.195032998919487,-0.3285810053348541
1710940777335000600,5.69400048828125,-0.4394659996032715,-0.24011699855327606,-0.40464600920677185
1710940777391421000,5.7504208984375,0.04190399870276451,-0.1585340052843094,-0.6742720007896423
1710940777447841300,5.80684130859375,-0.1583710014820099,0.04246700182557106,-0.7353860139846802
1710940777504261600,5.86326171875,0.16442100703716278,0.2458920031785965,-0.9339029788970947
1710940777560681700,5.919681640625,0.3734869956970215,0.3608880043029785,-0.5200120210647583
1710940777617102000,5.97610205078125,-0.32204198837280273,0.2507599890232086,0.011682000011205673
1710940777673522400,6.0325224609375,0.32409200072288513,0.07967600226402283,0.1649779975414276
1710940777729942800,6.08894287109375,0.1418910026550293,0.0286250002682209,0.1584019958972931
1710940777786363100,6.145363037109375,0.10996399819850922,-0.13795000314712524,-0.032301001250743866
1710940777842783200,6.201783203125,0.40994301438331604,-0.333173006772995,-0.40922799706459045
1710940777899203600,6.25820361328125,-0.07104499638080597,-0.38595500588417053,-0.4035719931125641
1710940777955623700,6.314623779296875,0.13137899339199066,-0.11984500288963318,-0.012048999778926373
1710940778012044000,6.3710439453125,-0.1935500055551529,0.14748400449752808,-0.27605000138282776
1710940778068464400,6.42746435546875,-0.18105100095272064,0.46176499128341675,-0.6103479862213135
1710940778124884700,6.483884765625,0.25921300053596497,0.001366000040434301,0.22093899548053741
1710940778181305000,6.54030517578125,0.20907999575138092,-0.17156599462032318,0.03828800097107887
1710940778237725200,6.59672509765625,-0.0920879989862442,-0.25722000002861023,0.04060100018978119
1710940778294145800,6.653145751953125,0.20045199990272522,-0.2023719996213913,-0.25190800428390503
1710940778350566000,6.70956591796875,0.0036589999217540026,-0.2686919867992401,-0.34137600660324097
1710940778406986200,6.765986328125,-0.12420299649238586,-0.23959699273109436,-0.6294919848442078
1710940778463406300,6.82240625,-0.03850099816918373,-0.3856169879436493,-0.1838809996843338
1710940778519826700,6.87882666015625,-0.30706799030303955,0.1304679960012436,-0.5876979827880859
1710940778576247000,6.9352470703125,0.22983099520206451,-0.13439400494098663,-0.36482998728752136
1710940778632667100,6.991667236328125,1.2722729444503784,-0.1811159998178482,0.024101000279188156
1710940778689087500,7.04808740234375,-1.8047740459442139,0.050919000059366226,1.216048002243042
1710940778745507800,7.1045078125,-0.755050003528595,0.04295999929308891,2.053170919418335
1710940778801928200,7.16092822265625,3.2795639038085938,-0.6150680184364319,1.5399680137634277
1710940778858348500,7.2173486328125,1.3880939483642578,-0.5570949912071228,1.6684149503707886
1710940778914768600,7.2737685546875,-1.3932440280914307,-0.04466100037097931,0.7075920104980469
1710940778971189000,7.33018896484375,-0.06590999662876129,0.24584800004959106,-0.1133589968085289
1710940779027609300,7.386609375,0.4357900023460388,0.05591399967670441,0.06518399715423584
1710940779084029700,7.44302978515625,0.025609999895095825,-0.08077599853277206,0.2935529947280884
1710940779140449800,7.49944970703125,0.4913020133972168,-0.19734500348567963,0.32175499200820923
1710940779196870400,7.555870361328125,0.38299399614334106,-0.31714001297950745,0.7668650150299072
1710940779253290500,7.61229052734375,0.0720599964261055,-0.2784160077571869,0.9800609946250916
1710940779309710800,7.6687109375,0.4077729880809784,-0.3709520101547241,1.3645009994506836
1710940779366131200,7.725131103515625,-0.022120000794529915,-0.46871599555015564,1.3675709962844849
1710940779422551600,7.781551513671875,-0.4083699882030487,-0.5846490263938904,1.1924530267715454
1710940779478971600,7.8379716796875,0.03544899821281433,-0.7900369763374329,-0.24530300498008728
1710940779535392000,7.89439208984375,-0.3086239993572235,-0.4697679877281189,-0.4239340126514435
1710940779591812400,7.950812255859375,0.0879179984331131,0.008964999578893185,-0.8728569746017456
1710940779648232700,8.007232666015625,0.7888249754905701,0.14798599481582642,-0.655614972114563
1710940779704652800,8.06365283203125,1.3224749565124512,0.06036299839615822,-0.9913520216941833
1710940779761073000,8.120072998046876,-0.5149639844894409,0.03507599979639053,-0.9002879858016968
1710940779817493200,8.1764931640625,-0.2928600013256073,0.10809300094842911,-0.9980279803276062
1710940779873913600,8.23291357421875,0.06548400223255157,0.05536799877882004,-0.570277988910675
1710940779930334000,8.289333984375,-0.03334299847483635,-0.08972299844026566,-0.42151498794555664
1710940779986754300,8.34575439453125,-0.22772599756717682,-0.22943399846553802,-0.3547770082950592
1710940780043174700,8.402174560546875,-0.2761920094490051,-0.11979100108146667,-0.449411004781723
1710940780099594800,8.4585947265625,-0.3037649989128113,-0.020221000537276268,-0.25754499435424805
1710940780156015000,8.51501513671875,-0.10505300015211105,-0.08387000113725662,-0.3047010004520416
1710940780212435500,8.571435546875,-0.06913399696350098,-0.0631060004234314,-0.4450260102748871
1710940780268855800,8.627855712890625,0.38706299662590027,0.007613999769091606,-0.36354801058769226
1710940780325276000,8.68427587890625,0.1383029967546463,0.031268998980522156,-0.3270930051803589
1710940780381696300,8.7406962890625,0.29010000824928284,0.08029600232839584,-0.3169479966163635
1710940780438116600,8.79711669921875,-0.15979599952697754,0.005739999935030937,-0.23990200459957123
1710940780494537000,8.853536865234375,-0.7998520135879517,-0.0845239982008934,-0.11655499786138535
1710940780550957000,8.90995703125,2.0303258895874023,-0.6380119919776917,-0.08465699851512909
1710940780607377400,8.96637744140625,-0.9275640249252319,-0.3673369884490967,1.0188360214233398
1710940780663797800,9.0227978515625,-1.8142659664154053,-0.13650000095367432,1.4117079973220825
1710940780720217900,9.0792177734375,2.412179946899414,-0.4600380063056946,1.3031519651412964
1710940780776638200,9.13563818359375,1.6456749439239502,-0.07001899927854538,1.8545030355453491
1710940780833058600,9.19205859375,-0.9947280287742615,0.18503700196743011,0.850911021232605
1710940780889479000,9.24847900390625,0.08618400245904922,0.22089700400829315,0.43959900736808777
1710940780945899000,9.30489892578125,0.31967300176620483,0.2690710127353668,0.32294800877571106
1710940781002319400,9.3613193359375,0.23312799632549286,0.06747599691152573,0.5603539943695068
1710940781058739700,9.41773974609375,-0.10181300342082977,-0.21313999593257904,0.7612800002098083
1710940781115160000,9.47416015625,-0.08821400254964828,-0.3697560131549835,0.7109749913215637
1710940781171580200,9.530580078125,0.05392700061202049,-0.37081199884414673,0.679252028465271
1710940781228000500,9.58700048828125,0.04033700004220009,-0.26929599046707153,0.5118770003318787
1710940781284420600,9.643420654296875,0.20962800085544586,-0.21587499976158142,0.746366024017334
1710940781340841000,9.699841064453125,0.022967999801039696,-0.19609299302101135,0.884086012840271
1710940781397261300,9.75626123046875,-0.08254999667406082,-0.2768450081348419,0.9303060173988342
1710940781453681700,9.812681640625,-0.7613030076026917,-0.14899499714374542,0.9067879915237427
1710940781510101800,9.869101806640625,1.839722990989685,-0.536126971244812,-0.8001279830932617
1710940781566522000,9.925522216796875,-0.5475010275840759,0.10238900035619736,-0.33962899446487427
1710940781622942500,9.9819423828125,-1.4336949586868286,0.3044449985027313,-1.6727639436721802
1710940781679362800,10.03836279296875,3.252393960952759,-0.0816970020532608,-0.8383809924125671
1710940781735783200,10.094783203125,-1.085981011390686,-0.21800599992275238,-0.7741600275039673
1710940781792203300,10.151203369140624,-1.7509299516677856,-0.36804699897766113,-1.0676720142364502
1710940781848623400,10.207623291015626,-0.26714199781417847,-0.17436599731445312,-0.8017719984054565
1710940781905043700,10.264043701171875,0.34534698724746704,-0.057861000299453735,-0.6719819903373718
1710940781961464000,10.320464111328125,0.6713780164718628,-0.13783399760723114,-0.7854650020599365
1710940782017884400,10.376884521484374,0.7257859706878662,-0.03347399830818176,-0.5296220183372498
1710940782074304500,10.433304443359376,-0.02392200008034706,0.09415200352668762,-0.14256900548934937
1710940782130724900,10.489724853515625,-0.18860000371932983,-0.09743300080299377,-0.1123030036687851
1710940782187145200,10.546145263671875,-0.19975599646568298,-0.25366801023483276,-0.21296800673007965
1710940782243565600,10.602565673828124,-0.05624699965119362,-0.23194999992847443,-0.2947370111942291
1710940782299986000,10.65898583984375,-0.06029300019145012,-0.19839300215244293,-0.3279620110988617
1710940782356406000,10.715406005859375,0.34329599142074585,-0.16111400723457336,-0.4619559943675995
1710940782412826000,10.771826171875,-0.05334100127220154,-0.025638999417424202,-0.5638960003852844
1710940782469246500,10.82824658203125,0.12760800123214722,-0.06261099874973297,-0.7087609767913818
1710940782525666800,10.884666748046875,-0.027369000017642975,-0.21345199644565582,-0.7803320288658142
1710940782582087200,10.941087158203125,-0.8147510290145874,-0.11034099757671356,-0.02476700022816658
1710940782638507500,10.997507568359374,2.0304338932037354,-0.662434995174408,0.3814939856529236
1710940782694928000,11.053927978515626,-1.2124539613723755,-0.3357990086078644,1.6341290473937988
1710940782751348000,11.110347900390625,-0.11567399650812149,-0.06428699940443039,2.314439058303833
1710940782807768300,11.166768310546875,1.861314058303833,-0.2235029935836792,1.932803988456726
1710940782864188700,11.223188720703124,0.18502900004386902,0.10074499994516373,1.3214679956436157
1710940782920608800,11.27960888671875,-1.1144150495529175,0.2608810067176819,0.33234700560569763
1710940782977028900,11.33602880859375,0.1760919988155365,0.21876700222492218,0.3271769881248474
1710940783033449200,11.39244921875,0.611598014831543,0.0695049986243248,0.12937000393867493
1710940783089869600,11.44886962890625,0.29901599884033203,-0.14407899975776672,0.21987499296665192
1710940783146290000,11.5052900390625,0.0476979985833168,-0.20691899955272675,-0.01981000043451786
1710940783202710000,11.5617099609375,-0.19216400384902954,-0.3555949926376343,0.06824100017547607
1710940783259130400,11.61813037109375,-0.010274999774992466,-0.2890610098838806,0.22229400277137756
1710940783315550700,11.67455078125,-0.13273100554943085,-0.1489180028438568,0.4811069965362549
1710940783371971000,11.73097119140625,0.1574530005455017,-0.02380100078880787,0.6689239740371704
1710940783428391200,11.78739111328125,0.377128005027771,0.0008459999808110297,0.7929850220680237
1710940783484811500,11.8438115234375,0.15334899723529816,-0.11354000121355057,1.070942997932434
1710940783541231900,11.90023193359375,0.18549899756908417,-0.3382050096988678,0.9992679953575134
1710940783597652000,11.95665185546875,-0.03660300001502037,-0.37654098868370056,1.0303030014038086
1710940783654072300,12.013072265625,-0.5127450227737427,-0.10388299822807312,0.6793439984321594
1710940783710492700,12.06949267578125,1.9142760038375854,-0.319366991519928,-0.6636239886283875
1710940783766912800,12.125912841796875,-0.2534579932689667,-0.18328699469566345,-0.10939600318670273
1710940783823333000,12.1823330078125,-1.7479079961776733,0.011385999619960785,-1.3931920528411865
1710940783879753200,12.238753173828124,1.0307600498199463,-0.28481099009513855,-2.032881021499634
1710940783936173600,12.295173583984376,0.14850999414920807,-0.022115999832749367,-1.0194590091705322
1710940783992594000,12.351593994140625,-2.241154909133911,0.1993889957666397,-0.9770650267601013
1710940784049014000,12.408013916015625,0.20229800045490265,0.07777900248765945,-0.8199589848518372
1710940784105434400,12.464434326171874,0.7213839888572693,0.20276400446891785,-0.2873460054397583
1710940784161854500,12.5208544921875,0.97222501039505,0.09989800304174423,-0.37592101097106934
1710940784218275000,12.577275146484375,-0.06556099653244019,-0.2431669980287552,-0.29763299226760864
1710940784274695200,12.633695068359375,-0.04399099946022034,-0.2115360051393509,-0.23370899260044098
1710940784331115500,12.690115478515626,-0.3628219962120056,-0.2621169984340668,-0.21496699750423431
1710940784387536000,12.746535888671875,-0.10550200194120407,-0.3231070041656494,-0.38911598920822144
1710940784443956000,12.8029560546875,0.42037099599838257,-0.23387199640274048,-0.46136999130249023
1710940784500376300,12.859376220703124,0.45761001110076904,-0.16522100567817688,-0.718114972114563
1710940784556796700,12.915796630859376,0.24553099274635315,0.01585100032389164,-0.7955520153045654
1710940784613216800,12.972216796875,0.21754500269889832,-0.01207599975168705,-0.7550770044326782
1710940784669637000,13.02863720703125,-0.4000599980354309,0.07002600282430649,-0.6269320249557495
1710940784726057200,13.08505712890625,0.5158979892730713,-0.5019320249557495,-0.40032899379730225
1710940784782477600,13.1414775390625,-1.1944550275802612,-0.4831950068473816,0.6266819834709167
1710940784838897700,13.197897705078125,-0.8896759748458862,-0.2830199897289276,1.2815439701080322
1710940784895318000,13.254318115234375,0.6472679972648621,0.08949699997901917,2.2170629501342773
1710940784951738400,13.31073828125,3.2924818992614746,-0.22602100670337677,1.83473801612854
1710940785008158500,13.367158447265625,-1.4722150564193726,-0.000058000001445179805,1.145833969116211
1710940785064578800,13.423578857421875,-0.7710260152816772,0.2657319903373718,0.5790240168571472
1710940785120999200,13.479999267578124,1.118494987487793,0.15821799635887146,0.6017389893531799
1710940785177419300,13.536419189453126,0.7051039934158325,-0.16968199610710144,0.3182249963283539
1710940785233839600,13.592839599609375,0.01902100071310997,-0.3126719892024994,0.371304988861084
1710940785290260000,13.649260009765625,0.15133999288082123,-0.25051799416542053,0.42717498540878296
1710940785346680000,13.70568017578125,0.05089399963617325,-0.27970701456069946,0.5695139765739441
1710940785403100400,13.762100341796875,-0.1401509940624237,-0.21124200522899628,0.5408530235290527
1710940785459520500,13.8185205078125,0.03909200057387352,-0.1356090009212494,0.6081969738006592
1710940785515940900,13.87494091796875,-0.21464699506759644,0.009057000279426575,0.6590710282325745
1710940785572361200,13.931361328125,-0.01845400035381317,-0.143546000123024,0.5251190066337585
1710940785628781600,13.987781494140625,0.14121800661087036,-0.16774499416351318,0.4657280147075653
1710940785685201700,14.04420166015625,-0.0981609970331192,-0.2970139980316162,0.6023020148277283
1710940785741622000,14.1006220703125,-0.5320109724998474,0.0636570006608963,0.541155993938446
1710940785798042000,14.1570419921875,1.6923550367355347,-0.8375570178031921,-0.6844310164451599
1710940785854462500,14.21346240234375,-0.5951910018920898,-0.115276999771595,0.1464579999446869
1710940785910882800,14.2698828125,-1.5604139566421509,0.2360759973526001,-1.1106970310211182
1710940785967303000,14.326302978515624,0.8981930017471313,-0.3694480061531067,-1.4456640481948853
1710940786023723000,14.382722900390625,2.092205047607422,0.11682199686765671,-0.7256990075111389
1710940786080143400,14.439143310546875,-0.43946200609207153,0.28242701292037964,-1.0376169681549072
1710940786136563700,14.495563720703124,-0.41308099031448364,0.11812400072813034,-0.7801740169525146
1710940786192983800,14.55198388671875,-0.26315298676490784,0.08530700206756592,-0.34358200430870056
1710940786249404200,14.608404052734375,-0.1586180031299591,-0.028029000386595726,-0.4400950074195862
1710940786305824500,14.664824462890625,0.0970819965004921,-0.11717300117015839,-0.3745670020580292
1710940786362244600,14.72124462890625,0.18364399671554565,-0.04412899911403656,-0.2692579925060272
1710940786418665000,14.7776650390625,-0.22977200150489807,-0.10044600069522858,-0.24243900179862976
1710940786475085000,14.8340849609375,-0.04831299930810928,-0.16983599960803986,-0.239423006772995
1710940786531505400,14.89050537109375,0.15532900393009186,-0.14028400182724,-0.3266040086746216
1710940786587925500,14.946925537109376,0.14936299622058868,-0.0897969976067543,-0.34289899468421936
1710940786644345900,15.003345947265625,-0.17623500525951385,-0.053606998175382614,-0.2126619964838028
1710940786700766200,15.05976611328125,0.039622001349925995,-0.2205200046300888,-0.4645040035247803
1710940786757186300,15.116186279296874,-0.2716209888458252,-0.06122500076889992,-0.42505401372909546
1710940786813606400,15.1726064453125,1.2574219703674316,-0.730929970741272,-0.21212700009346008
1710940786870026800,15.22902685546875,-0.9258130192756653,-0.43259701132774353,0.5673099756240845
1710940786926447000,15.285447021484375,-0.5808550119400024,-0.26030299067497253,0.8506760001182556
1710940786982867200,15.3418671875,0.9195759892463684,-0.08895500004291534,1.7258520126342773
1710940787039287600,15.39828759765625,1.1861629486083984,0.010320999659597874,1.3175760507583618
1710940787095707600,15.454707763671875,-0.13171300292015076,0.11967000365257263,1.180832028388977
1710940787152128000,15.5111279296875,-0.2322169989347458,0.10243900120258331,0.601777970790863
1710940787208548000,15.567548095703126,0.004482999909669161,0.101173996925354,0.3771350085735321
1710940787264968400,15.623968505859375,0.14400899410247803,0.0457880012691021,0.21567699313163757
1710940787321388500,15.680388427734375,0.5678730010986328,-0.10860899835824966,0.12706799805164337
1710940787377809000,15.736808837890624,0.058382000774145126,-0.1358339935541153,0.12032599747180939
1710940787434229200,15.793229248046876,-0.18490800261497498,-0.13619600236415863,0.18229399621486664
1710940787490649300,15.8496494140625,-0.03627600148320198,-0.11079200357198715,0.5239269733428955
1710940787547069400,15.9060693359375,0.01370100025087595,-0.07892300188541412,0.45753198862075806
1710940787603489800,15.96248974609375,0.032896000891923904,-0.014224999584257603,0.4885829985141754
1710940787659910100,16.01891015625,0.3044640123844147,-0.020540999248623848,0.485164999961853
1710940787716330200,16.075330322265625,0.37824198603630066,-0.1630290001630783,0.4669780135154724
1710940787772750600,16.13175048828125,-0.521776020526886,0.1945209950208664,0.763625979423523
1710940787829171000,16.1881708984375,1.7318710088729858,-0.711326003074646,-0.6659359931945801
1710940787885591000,16.244591064453125,-0.9034609794616699,-0.33561399579048157,0.6171720027923584
1710940787942011100,16.30101123046875,-1.3490970134735107,-0.329118013381958,-0.18452300131320953
1710940787998431500,16.357431396484376,0.07450500130653381,-0.709617018699646,-1.5487170219421387
1710940788054851600,16.4138515625,1.394413948059082,-0.12901100516319275,-1.1854710578918457
1710940788111271700,16.470271728515623,-0.18043099343776703,0.3895309865474701,-0.9031379818916321
1710940788167692000,16.526692138671876,-0.4094749987125397,0.2216009944677353,-0.587440013885498
1710940788224112400,16.5831123046875,-0.36018499732017517,0.18540999293327332,-0.41484400629997253
1710940788280532700,16.63953271484375,-0.06543900072574615,0.1288679987192154,-0.12595799565315247
1710940788336952800,16.695952880859377,0.41795000433921814,0.08982300013303757,0.0004780000017490238
1710940788393373000,16.752373046875,0.6069250106811523,-0.04282199963927269,-0.0752519965171814
1710940788449793300,16.808793212890624,-0.0715859979391098,-0.045145001262426376,-0.09017399698495865
1710940788506213600,16.865213623046873,0.07334200292825699,-0.0450190007686615,-0.4149650037288666
1710940788562633700,16.9216337890625,0.03312800079584122,-0.13928799331188202,-0.4915100038051605
1710940788619053800,16.9780537109375,-0.021635999903082848,-0.05715499818325043,-0.2390339970588684
1710940788675474000,17.034473876953125,0.13864099979400635,-0.15352100133895874,-0.45439600944519043
1710940788731894300,17.090894287109375,0.3743929862976074,-0.1825059950351715,-0.42152100801467896
1710940788788314400,17.147314453125,-0.24666300415992737,0.24587200582027435,-0.24651400744915009
1710940788844734700,17.203734619140626,1.085319995880127,-0.7259610295295715,-0.5161719918251038
1710940788901154800,17.26015478515625,-0.24217399954795837,-0.25571200251579285,-0.05116499960422516
1710940788957575200,17.3165751953125,-1.5645289421081543,-0.22539600729942322,0.42737600207328796
1710940789013995300,17.372995361328126,0.28319400548934937,-0.4034459888935089,1.3708699941635132
1710940789070415400,17.429415283203124,0.08556800335645676,-0.1237960010766983,1.6465489864349365
1710940789126835700,17.485835693359373,1.7107939720153809,-0.2959139943122864,0.8977929949760437
1710940789183256000,17.542256103515626,-0.22536399960517883,0.003200999926775694,0.7357649803161621
1710940789239676400,17.598676513671876,-0.8622530102729797,0.28893399238586426,0.409280002117157
1710940789296096300,17.65509619140625,0.20154500007629395,0.19171999394893646,0.3055410087108612
1710940789352516600,17.7115166015625,0.20791199803352356,-0.09712900221347809,0.14043599367141724
1710940789408936700,17.767936767578124,0.493135005235672,-0.1269560009241104,-0.0444599986076355
1710940789465356800,17.824356689453126,-0.05469999834895134,-0.07872399687767029,0.04301900044083595
1710940789521777200,17.880777099609375,-0.10845500230789185,-0.10789400339126587,0.23549699783325195
1710940789578197500,17.937197509765625,0.17280100286006927,-0.16402900218963623,0.5251579880714417
1710940789634617600,17.99361767578125,0.07987599819898605,-0.10739199817180634,0.5596539974212646
1710940789691038000,18.050037841796875,-0.2956939935684204,0.0022410000674426556,0.5627139806747437
1710940789747458000,18.1064580078125,0.07047899812459946,0.011074000038206577,0.5534719824790955
1710940789803878100,18.162878173828126,0.3015410006046295,0.0035019998904317617,0.5409129858016968
1710940789860298500,18.219298583984376,0.07736200094223022,-0.07924900203943253,0.6939619779586792
1710940789916718800,18.27571875,0.15004399418830872,-0.17015400528907776,0.8536109924316406
1710940789973139000,18.332138916015627,0.034122999757528305,-0.2143010050058365,0.6312170028686523
1710940790029559000,18.38855908203125,0.038892000913619995,-0.13928300142288208,0.419297993183136
1710940790085979400,18.4449794921875,-0.2956260144710541,0.12696999311447144,0.2753109931945801
1710940790142399500,18.5013994140625,1.5631810426712036,-0.8611869812011719,-0.5927760004997253
1710940790198819600,18.557819580078124,-0.4064149856567383,-0.1313599944114685,0.20369599759578705
1710940790255240000,18.614239990234374,-1.0595710277557373,-0.08078200370073318,-0.6916580200195312
1710940790311660000,18.670659912109375,-0.17939700186252594,-0.2445790022611618,-1.50081205368042
1710940790368080400,18.727080322265625,1.4750659465789795,-0.3029100000858307,-1.461366057395935
1710940790424500500,18.78350048828125,0.4078119993209839,0.3634229898452759,-0.8087999820709229
1710940790480920600,18.839920654296876,-0.8880959749221802,0.241348996758461,-0.9363909959793091
1710940790537341000,18.8963408203125,0.31725001335144043,-0.0055740000680089,-0.6038039922714233
1710940790593761000,18.952760986328126,-0.35476401448249817,-0.02900099940598011,-0.26632198691368103
1710940790650181400,19.009181396484376,0.08250900357961655,-0.30223599076271057,-0.1511320024728775
1710940790706601500,19.0656015625,0.10887300223112106,-0.39542099833488464,0.04314899817109108
1710940790763021600,19.122021484375,-0.34518200159072876,-0.26712700724601746,-0.05090399831533432
1710940790819442000,19.17844189453125,-0.18813399970531464,-0.2379940003156662,-0.23385299742221832
1710940790875862000,19.234862060546874,0.24823099374771118,-0.17246100306510925,-0.46587398648262024
1710940790932282000,19.2912822265625,0.0661960020661354,-0.02701300010085106,-0.5436919927597046
1710940790988702500,19.347702392578125,0.10209300369024277,-0.0024969999212771654,-0.6067489981651306
1710940791045122600,19.40412255859375,0.027483999729156494,0.003664999967440963,-0.6019089818000793
1710940791101543000,19.46054296875,-0.16721700131893158,0.040366001427173615,-0.5028790235519409
1710940791157963000,19.516962890625,-0.07672400027513504,-0.05404600128531456,-0.4692620038986206
1710940791214383000,19.573383056640626,-0.004275000188499689,-0.06842800229787827,-0.5211420059204102
1710940791270803500,19.629803466796876,-0.10327599942684174,-0.018695000559091568,-0.528236985206604
1710940791327223600,19.6862236328125,0.22119200229644775,-0.23832400143146515,-0.04733800143003464
1710940791383643600,19.7426435546875,1.6380460262298584,-0.1156969964504242,0.41676101088523865
1710940791440063700,19.799063720703124,-1.7035609483718872,-0.15969499945640564,1.2219460010528564
1710940791496484000,19.855484130859374,-0.19016200304031372,-0.2864530086517334,2.3881940841674805
1710940791552904200,19.911904296875,1.5840810537338257,-0.913923978805542,1.843891978263855
1710940791609324300,19.96832421875,1.212615966796875,-0.3735849857330322,1.094992995262146
1710940791665744600,20.02474462890625,-2.1975390911102295,0.41655999422073364,0.4313650131225586
1710940791722165000,20.0811650390625,0.22983300685882568,0.30563199520111084,0.8139050006866455
1710940791778585000,20.137585205078125,0.9337530136108398,-0.017991000786423683,0.5697810053825378
1710940791835005200,20.194005126953126,0.711126983165741,-0.3023419976234436,0.39118701219558716
1710940791891425300,20.25042529296875,0.1684810072183609,-0.30730998516082764,0.2478490024805069
1710940791947845400,20.306845458984377,-0.4287149906158447,-0.1772180050611496,0.10904199630022049
1710940792004265500,20.363265380859374,-0.12314199656248093,-0.2104330062866211,-0.026364000514149666
1710940792060685800,20.419685791015624,0.10128399729728699,-0.16384199261665344,0.29239699244499207
1710940792117106200,20.476106201171874,0.36479198932647705,-0.11836600303649902,0.6423850059509277
1710940792173526300,20.5325263671875,0.004858999978750944,-0.13924600183963776,1.0052200555801392
1710940792229946400,20.5889462890625,0.12604600191116333,-0.19850100576877594,1.221310019493103
1710940792286366500,20.645366455078126,0.13309699296951294,-0.26675599813461304,1.2653160095214844
1710940792342786800,20.701786865234375,0.12511199712753296,-0.21186600625514984,0.9708549976348877
1710940792399207000,20.75820703125,0.05317699909210205,-0.23518100380897522,0.8397169709205627
1710940792455627000,20.814626953125,-1.0525269508361816,-0.46322500705718994,0.7338250279426575
1710940792512047400,20.87104736328125,2.335024118423462,-0.6517770290374756,-0.4324609935283661
1710940792568467500,20.927467529296877,-1.810215950012207,-0.2932650148868561,-0.6215540170669556
1710940792624887800,20.9838876953125,-0.6385570168495178,-0.20254400372505188,-1.8171950578689575
1710940792681308000,21.040307861328124,0.9789180159568787,0.1911270022392273,-2.2543630599975586
1710940792737728000,21.09672802734375,0.8144429922103882,0.47614800930023193,-1.0972050428390503
1710940792794148000,21.153148193359375,-0.8629360198974609,0.5419250130653381,-0.6567170023918152
1710940792850568200,21.209568115234376,0.42479801177978516,0.050415001809597015,-0.4540739953517914
1710940792906988300,21.26598828125,0.03195200115442276,-0.10656899958848953,-0.20319199562072754
1710940792963408600,21.32240869140625,-0.07715699821710587,-0.17321400344371796,-0.08805199712514877
1710940793019828700,21.378828857421876,0.06256099790334702,-0.3881419897079468,0.07389099895954132
1710940793076249000,21.4352490234375,0.18529200553894043,-0.3459259867668152,-0.012672999873757362
1710940793132669000,21.4916689453125,-0.6900380253791809,-0.23912200331687927,-0.3009609878063202
1710940793189089300,21.54808935546875,0.11194799840450287,-0.10352600365877151,-0.46073800325393677
1710940793245509600,21.604509521484374,0.1682949960231781,0.020388999953866005,-0.45371198654174805
1710940793301929700,21.6609296875,0.15534299612045288,0.16061900556087494,-0.24119499325752258
1710940793358349600,21.717349609375,0.24668000638484955,-0.0003060000017285347,-0.028751999139785767
1710940793414770000,21.77377001953125,0.027612999081611633,-0.0847650021314621,0.10651899874210358
1710940793471190000,21.83018994140625,-0.04362199828028679,-0.1746329963207245,0.1502320021390915
1710940793527610000,21.886610107421873,-0.0034779999405145645,-0.2196969985961914,0.1796099990606308
1710940793584030500,21.943030517578126,0.06582900136709213,-0.11629600077867508,-0.04907200112938881
1710940793640450600,21.999450439453124,-0.1628039926290512,-0.05332599952816963,-0.24109899997711182
1710940793696870700,22.05587060546875,0.1789419949054718,0.023636000230908394,-0.3709529936313629
1710940793753290800,22.112290771484375,-0.10842200368642807,0.10526300221681595,-0.44684699177742004
1710940793809711000,22.168711181640624,0.5242140293121338,-0.5572389960289001,-0.32060399651527405
1710940793866131200,22.225131103515626,0.6667609810829163,-0.3112109899520874,-0.13458000123500824
1710940793922551300,22.28155126953125,-1.751979947090149,-0.16771000623703003,-0.051635000854730606
1710940793978971400,22.337971435546876,0.45969200134277344,-0.3706279993057251,0.7241380214691162
1710940794035391500,22.3943916015625,-0.44825801253318787,0.15860499441623688,1.2800790071487427
1710940794091811800,22.450811767578124,0.3018620014190674,0.12699399888515472,1.3103079795837402
1710940794148232000,22.50723193359375,1.3401119709014893,0.22456499934196472,0.8505799770355225
1710940794204652000,22.563652099609374,-0.02961600013077259,0.44114699959754944,0.8359320163726807
1710940794261072400,22.620072265625,-0.03729400038719177,0.5292689800262451,0.4326060116291046
1710940794317492200,22.6764921875,-0.18343399465084076,0.3544580042362213,0.16263499855995178
1710940794373912300,22.732912353515626,-0.02438499964773655,0.12921300530433655,-0.009201999753713608
1710940794430332700,22.789332763671876,-0.20765100419521332,0.11963500082492828,-0.047775998711586
1710940794486752800,22.845752685546874,-0.22711999714374542,0.19250400364398956,0.041228998452425
1710940794543172900,22.9021728515625,-0.14358200132846832,0.2511279881000519,0.029929999262094498
1710940794599593000,22.958593017578124,0.12452100217342377,0.2429320067167282,0.17207099497318268
1710940794656013300,23.015013427734374,0.04666399955749512,0.30631500482559204,0.40316399931907654
1710940794712433400,23.071433349609375,0.06956200301647186,0.2615410089492798,0.446723997592926
1710940794768853500,23.127853515625,0.13048799335956573,0.21894599497318268,0.5115309953689575
1710940794825273600,23.184273681640626,0.19192799925804138,0.2065339982509613,0.7538989782333374
1710940794881694000,23.24069384765625,0.6721829771995544,-0.26451000571250916,0.4066849946975708
1710940794938113800,23.29711376953125,4.506533145904541,-0.8204159736633301,0.3647029995918274
1710940794994534000,23.353533935546874,0.3825240135192871,-0.7472860217094421,0.7670829892158508
1710940795050954200,23.409954345703124,-1.823362946510315,-0.7718570232391357,0.11691100150346756
1710940795107374300,23.466374267578125,-1.0749009847640991,-1.4877530336380005,-1.3860780000686646
1710940795163794400,23.52279443359375,0.863306999206543,-2.0462958812713623,-1.393686056137085
1710940795220214500,23.579214599609376,-0.1433430016040802,-0.8809459805488586,-0.45901399850845337
1710940795276635000,23.635634765625,-1.8499759435653687,-0.6391990184783936,0.13417799770832062
1710940795333055000,23.692054931640627,0.37702998518943787,-0.8068979978561401,-0.09320800006389618
1710940795389475000,23.74847509765625,-0.05166200175881386,-0.24431799352169037,0.17768199741840363
1710940795445895200,23.804895263671874,0.18442100286483765,0.06557600200176239,0.12172900140285492
1710940795502315300,23.861315185546875,-0.09470800310373306,0.21001000702381134,-0.027705000713467598
1710940795558735400,23.9177353515625,0.04780400171875954,0.3638960123062134,0.11548499763011932
1710940795615155500,23.974155517578126,-0.05070799961686134,0.4089069962501526,0.20048099756240845
1710940795671575600,24.030575439453123,-0.1788879930973053,0.4985499978065491,0.16193300485610962
1710940795727995600,24.08699560546875,-0.1574070006608963,0.48280999064445496,0.06937699764966965
1710940795784415700,24.143415771484374,-0.2473060041666031,0.5173060297966003,-0.18142299354076385
1710940795840836000,24.199836181640624,-0.13422200083732605,0.5897560119628906,-0.32867398858070374
1710940795897256200,24.256256103515625,0.06883300095796585,0.4127280116081238,-0.5553749799728394
1710940795953676000,24.312676025390626,0.1671759933233261,-0.05200999975204468,-0.23071600496768951
1710940796010096400,24.369096435546876,1.7869470119476318,-0.05730000138282776,-0.8822280168533325
1710940796066516200,24.42551611328125,1.932068943977356,-0.7573279738426208,-1.0820519924163818
1710940796122936600,24.4819365234375,-0.06021999940276146,-0.4885669946670532,-0.5516480207443237
1710940796179356700,24.538356689453124,-2.2069149017333984,-0.5318679809570312,0.2571820020675659
1710940796235776800,24.59477685546875,0.28734999895095825,-1.0231380462646484,0.6402249932289124
1710940796292196900,24.65119677734375,-0.0859680026769638,-1.145730972290039,1.107964038848877
1710940796348617000,24.707616943359376,1.5216699838638306,-1.319445013999939,0.38818100094795227
1710940796405037300,24.764037353515626,-0.5381889939308167,-0.7779300212860107,0.3159230053424835
1710940796461457400,24.82045751953125,-1.8942910432815552,-0.07413499802350998,0.12033700197935104
1710940796517877200,24.876877197265625,-0.6926010251045227,-0.01963699981570244,0.16335299611091614
1710940796574297600,24.933297607421874,0.5528690218925476,-0.06481900066137314,-0.14179299771785736
1710940796630717700,24.9897177734375,1.0025839805603027,0.2583949863910675,0.09638500213623047
1710940796687137800,25.0461376953125,0.017232000827789307,0.5024470090866089,0.36812999844551086
1710940796743558000,25.102557861328126,-0.2861289978027344,0.5545520186424255,0.5710430145263672
1710940796799978000,25.15897802734375,-0.082676000893116,0.5761860013008118,0.5179839730262756
1710940796856398000,25.215398193359373,0.30799600481987,0.499442994594574,0.3461349904537201
1710940796912818200,25.271818115234375,0.7184770107269287,0.4834649860858917,0.20215100049972534
1710940796969238300,25.32823828125,-0.07428999990224838,0.8769689798355103,0.6907910108566284
1710940797025658400,25.384658447265625,2.8796579837799072,0.25237101316452026,-0.03893100097775459
1710940797082078500,25.441078369140627,1.0535809993743896,-0.6754869818687439,0.6128190159797668
1710940797138498600,25.49749853515625,1.7663660049438477,-1.340283989906311,0.675125002861023
1710940797194918700,25.553918701171874,-1.6510740518569946,-1.6049180030822754,0.8316860198974609
1710940797251338800,25.6103388671875,-2.0935940742492676,-1.98552405834198,0.16466300189495087
1710940797307759000,25.666759033203125,0.5535110235214233,-1.8508280515670776,0.6131970286369324
1710940797364179200,25.72317919921875,-0.8541579842567444,-0.8090999722480774,0.8227570056915283
1710940797420599000,25.77959912109375,-1.156440019607544,-0.6430270075798035,0.11470600217580795
1710940797477019100,25.83601904296875,-0.16594800353050232,-0.46762698888778687,-0.2900179922580719
1710940797533439200,25.892439208984374,0.3476560115814209,-0.0845469981431961,-0.3602760136127472
1710940797589859300,25.948859375,0.13787199556827545,0.19800199568271637,-0.2871060073375702
1710940797646279400,26.005279541015625,-0.26238200068473816,0.4988979995250702,-0.07499100267887115
1710940797702699800,26.06169970703125,0.22130200266838074,0.6165310144424438,-0.21672099828720093
1710940797759120000,26.118119873046876,0.3876250088214874,0.5804389715194702,-0.1758120059967041
1710940797815539700,26.174539794921873,0.49695301055908203,0.4728350043296814,-0.3726760149002075
1710940797871960000,26.2309599609375,0.33328700065612793,-0.019780000671744347,-0.31412801146507263
1710940797928380000,26.2873798828125,1.956676959991455,-0.5496990084648132,-0.7717099785804749
1710940797984800000,26.343800048828125,3.436861991882324,-0.8747090101242065,-0.8208720088005066
1710940798041220400,26.400220458984375,-2.0502591133117676,-0.6076440215110779,0.3751800060272217
1710940798097640400,26.456640380859376,-2.2479920387268066,-0.9848179817199707,0.6606339812278748
1710940798154060300,26.513060302734374,-0.05316099897027016,-1.3141909837722778,1.1784650087356567
1710940798210480600,26.569480712890623,1.5452170372009277,-1.7686669826507568,1.08091402053833
1710940798266900700,26.625900634765625,1.3819659948349,-1.4123640060424805,0.2944749891757965
1710940798323320800,26.68232080078125,-2.855721950531006,-0.5318229794502258,0.008549000136554241
1710940798379740700,26.73874072265625,-1.950760006904602,0.1424179971218109,-0.24019600450992584
1710940798436161000,26.7951611328125,0.666458010673523,0.1126210018992424,-0.3716830015182495
1710940798492581000,26.8515810546875,2.464376926422119,0.18219700455665588,-0.5857089757919312
1710940798549001000,26.9080009765625,-0.14946599304676056,0.49743199348449707,-0.2800830006599426
1710940798605421300,26.96442138671875,-0.7201290130615234,0.6262580156326294,-0.15937000513076782
1710940798661841200,27.020841064453126,-0.3383510112762451,0.5519409775733948,0.40536001324653625
1710940798718261200,27.07726123046875,0.3478110134601593,0.41010600328445435,0.9620829820632935
1710940798774681600,27.133681640625,0.5872030258178711,0.35517698526382446,1.3117729425430298
1710940798831101400,27.190101318359375,0.16863499581813812,0.7691850066184998,1.6207189559936523
1710940798887521500,27.246521484375,2.9277610778808594,-0.17761899530887604,0.1684650033712387
1710940798943942000,27.30294189453125,2.024341106414795,-0.6311129927635193,0.7355430126190186
1710940799000361700,27.35936181640625,-0.27435100078582764,-0.9134569764137268,0.6300719976425171
1710940799056781800,27.41578173828125,-2.0621769428253174,-1.1476249694824219,0.4867520034313202
1710940799113202000,27.472201904296874,-1.538712978363037,-1.3419389724731445,-0.4977549910545349
1710940799169622000,27.5286220703125,-0.9584779739379883,-1.549973964691162,-1.0229829549789429
1710940799226042000,27.5850419921875,2.157731056213379,-1.2764819860458374,-0.8394629955291748
1710940799282462200,27.641462158203126,-0.5055440068244934,-0.41111600399017334,0.16610999405384064
1710940799338882300,27.69788232421875,-1.755465030670166,-0.08436399698257446,0.32264599204063416
1710940799395302400,27.754302490234377,-0.08694799989461899,-0.1688939929008484,-0.35996100306510925
1710940799451722500,27.810722412109374,1.05662202835083,-0.04413500055670738,-0.5073729753494263
1710940799508142600,27.867142578125,0.5520579814910889,0.23469899594783783,-0.47998499870300293
1710940799564562400,27.9235625,-0.52777099609375,0.33064401149749756,-0.645950973033905
1710940799620982800,27.979982666015626,-0.3644390106201172,0.470553994178772,-0.5732809901237488
1710940799677403000,28.03640283203125,-0.14730800688266754,0.6434040069580078,-0.35869500041007996
1710940799733823000,28.092822998046874,-0.06324200332164764,0.5622770190238953,-0.6202319860458374
1710940799790242800,28.149242919921875,0.14065200090408325,0.46151700615882874,-0.740909993648529
1710940799846663200,28.2056630859375,-0.09131000190973282,0.8852319717407227,-0.3621259927749634
1710940799903083000,28.2620830078125,2.753952980041504,0.13936300575733185,-0.3095560073852539
1710940799959503000,28.318503173828127,2.7195940017700195,-0.5373820066452026,-0.43512800335884094
1710940800015923200,28.374923095703124,-0.20491600036621094,-0.522042989730835,-0.8115040063858032
1710940800072343300,28.43134326171875,-2.46390700340271,-0.9060580134391785,-0.24789699912071228
1710940800128763400,28.487763427734375,-0.23360800743103027,-1.3706259727478027,-0.2046239972114563
1710940800185183500,28.54418359375,0.27005499601364136,-1.633270025253296,0.003776000114157796
1710940800241603600,28.600603515625,0.8279550075531006,-1.890241026878357,-0.5301219820976257
1710940800298023700,28.657023681640624,-1.0426130294799805,-1.3327829837799072,-0.6646659970283508
1710940800354443500,28.713443603515625,-1.7106250524520874,-0.21412500739097595,-0.6266160011291504
1710940800410863600,28.769863525390626,0.11236999928951263,0.06840900331735611,0.1778009980916977
1710940800467283700,28.82628369140625,0.9209700226783752,0.11056900024414062,0.5191550254821777
1710940800523704000,28.8827041015625,1.3597509860992432,0.18141399323940277,0.8841620087623596
1710940800580124000,28.9391240234375,0.10744699835777283,0.37450799345970154,0.9685699939727783
1710940800636544000,28.9955439453125,-0.1666180044412613,0.3736410140991211,0.9113919734954834
1710940800692964000,29.051964111328125,-0.022901000455021858,0.2055159956216812,0.7464699745178223
1710940800749384200,29.10838427734375,0.14301399886608124,0.18786099553108215,0.8432440161705017
1710940800805804300,29.16480419921875,0.1825219988822937,0.28205499053001404,0.9502890110015869
1710940800862224400,29.221224365234374,0.02399599924683571,0.39109399914741516,1.2279449701309204
1710940800918644500,29.27764453125,3.2144219875335693,0.10750400274991989,0.14632299542427063
1710940800975064300,29.334064208984376,0.08115500211715698,-0.29628100991249084,0.5916270017623901
1710940801031484700,29.390484619140626,-0.18096399307250977,-0.6106899976730347,0.7232530117034912
1710940801087904500,29.446904541015623,-0.4629659950733185,-0.9316499829292297,0.18813499808311462
1710940801144324600,29.50332470703125,-0.3321720063686371,-1.279952049255371,-0.6228439807891846
1710940801200744700,29.55974462890625,-0.3035320043563843,-1.4067859649658203,-1.1638120412826538
1710940801257164800,29.616164794921875,-0.4248180091381073,-1.0070209503173828,-1.128551959991455
1710940801313585000,29.6725849609375,-0.8725370168685913,-0.3673880100250244,-0.5876950025558472
1710940801370005000,29.7290048828125,-0.3475080132484436,-0.17867699265480042,0.13622599840164185
1710940801426425000,29.785425048828124,-0.20044000446796417,-0.07294400036334991,0.2270060032606125
1710940801482845000,29.841844970703125,0.31961798667907715,0.08800899982452393,-0.16432499885559082
1710940801539265300,29.898265380859375,0.5611940026283264,0.3392750024795532,-0.11502400040626526
1710940801595685400,29.954685302734376,0.12386699765920639,0.5371800065040588,0.32851698994636536
1710940801652105200,30.011105224609373,-0.14916999638080597,0.5274749994277954,0.42627501487731934
1710940801708525300,30.067525390625,-0.2653859853744507,0.5493490099906921,0.4481000006198883
1710940801764945400,30.1239453125,0.17398999631404877,0.5429049730300903,0.10600899904966354
1710940801821365500,30.180365478515625,0.33673399686813354,0.5052599906921387,-0.1411910057067871
1710940801877785600,30.23678564453125,-0.3953700065612793,0.6418780088424683,-0.0998620018362999
1710940801934205700,30.293205810546876,2.05741810798645,0.17716099321842194,-0.487949013710022
1710940801990625500,30.34962548828125,0.6216610074043274,-0.5834090113639832,-0.8010010123252869
1710940802047045600,30.406045654296875,2.2984519004821777,-0.944221019744873,-1.6797330379486084
1710940802103465700,30.4624658203125,-2.220376968383789,-0.8181819915771484,-0.8221229910850525
1710940802159885800,30.5188857421875,-1.9337600469589233,-1.1367830038070679,-0.6052259802818298
1710940802216306000,30.575305908203124,0.4362120032310486,-1.3564590215682983,-0.24515500664710999
1710940802272725800,30.631725830078125,0.01658800058066845,-1.3913389444351196,-0.23354099690914154
1710940802329145900,30.688145751953126,0.34275099635124207,-1.5377659797668457,-0.5099040269851685
1710940802385566000,30.74456591796875,0.14917099475860596,-1.1770329475402832,-0.6882740259170532
1710940802441986000,30.800986083984377,-0.9266970157623291,-0.519806981086731,-0.5744959712028503
1710940802498406100,30.85740625,-0.011202000081539154,-0.4361970126628876,-0.4830529987812042
1710940802554826200,30.913826171875,0.8838779926300049,-0.5590270161628723,-0.09019900113344193
1710940802611246000,30.97024609375,1.4350520372390747,-0.7410740256309509,0.24601499736309052
1710940802667666200,31.026666259765626,-0.03159400075674057,-0.6210219860076904,0.832256019115448
1710940802724086300,31.083086181640624,0.22297999262809753,-0.6071169972419739,1.1033129692077637
1710940802780506400,31.13950634765625,0.30833899974823,-0.649482011795044,1.0666979551315308
1710940802836926500,31.195926513671875,0.0749880000948906,-0.6578019857406616,0.9472669959068298
1710940802893346600,31.2523466796875,0.08496200293302536,-0.6008089780807495,0.9853630065917969
1710940802949766400,31.308766357421874,-0.03140600025653839,-0.6397770047187805,1.2034050226211548
1710940803006186500,31.3651865234375,0.43314000964164734,-0.8036190271377563,1.084077000617981
1710940803062606600,31.421606689453125,-0.4116489887237549,-0.6408669948577881,1.304386019706726
1710940803119026400,31.4780263671875,1.558137059211731,-0.40954700112342834,0.17339299619197845
1710940803175446800,31.53444677734375,0.16351400315761566,-0.44760701060295105,-0.6525260210037231
1710940803231867000,31.590866943359377,-0.059679001569747925,-0.5503249764442444,-0.9294090270996094
1710940803288286700,31.64728662109375,-1.0355629920959473,-0.37770798802375793,-1.6161680221557617
1710940803344706800,31.703706787109375,-0.9094550013542175,-0.6888319849967957,-2.0819718837738037
1710940803401127000,31.760126953125,0.2500140070915222,-0.45582500100135803,-1.489691972732544
1710940803457546800,31.816546630859374,1.2535090446472168,-0.2610819935798645,-0.12196700274944305
1710940803513966800,31.872966796875,0.1770620048046112,-0.10030999779701233,0.4829249978065491
1710940803570387000,31.929386962890625,-0.9865170121192932,-0.25069600343704224,0.3752880096435547
1710940803626807000,31.98580712890625,0.21985000371932983,-0.2213519960641861,0.5319399833679199
1710940803683227100,32.04222705078125,0.40555301308631897,0.08728200197219849,0.635358989238739
1710940803739647200,32.09864721679688,0.08601199835538864,0.20422899723052979,0.5932980179786682
1710940803796067000,32.155067138671875,-0.5461120009422302,0.27052900195121765,0.392179012298584
1710940803852487200,32.21148706054687,-0.47881901264190674,0.7500100135803223,0.09721499681472778
1710940803908907300,32.2679072265625,-0.106454998254776,0.8246170282363892,-0.05045799911022186
1710940803965327000,32.3243271484375,0.1807750016450882,0.5957630276679993,-0.5124329924583435
1710940804021747500,32.38074755859375,-0.7905229926109314,0.3255470097064972,-0.41805800795555115
1710940804078167300,32.43716723632812,1.5030959844589233,-0.05788299813866615,-0.11632999777793884
1710940804134587400,32.49358740234375,0.37505000829696655,-0.8003379702568054,0.022422999143600464
1710940804191007500,32.550007568359376,2.1866230964660645,-1.2187689542770386,0.2704949975013733
1710940804247427600,32.606427490234374,-0.3609539866447449,-1.269827961921692,0.826092004776001
1710940804303847400,32.66284741210937,-0.9167640209197998,-1.0335570573806763,0.8431339859962463
1710940804360267500,32.719267578125,0.27147701382637024,-1.1854909658432007,0.21936500072479248
1710940804416687600,32.7756875,0.18366099894046783,-0.7912070155143738,0.8631079792976379
1710940804473107700,32.832107666015624,-0.6259999871253967,-0.4255419969558716,0.6190490126609802
1710940804529527600,32.88852758789063,-0.34124600887298584,-0.3147819936275482,0.02261199988424778
1710940804585947600,32.94494775390625,-0.010786999948322773,0.20608699321746826,-0.5315390229225159
1710940804642367700,33.00136767578125,0.5946940183639526,0.24992799758911133,-0.31669899821281433
1710940804698787800,33.05778784179687,0.5211700201034546,0.21470299363136292,0.16885900497436523
1710940804755207700,33.11420776367188,-0.19017000496387482,0.1291469931602478,0.5604599714279175
1710940804811627800,33.170627685546876,-0.31003499031066895,0.10834299772977829,0.898597002029419
1710940804868048000,33.2270478515625,-0.07436200231313705,0.05830100178718567,0.894644021987915
1710940804924467700,33.2834677734375,-0.30393698811531067,0.09211000055074692,0.7488840222358704
1710940804980887800,33.3398876953125,0.08969099819660187,0.25213000178337097,0.643347978591919
1710940805037308000,33.396307861328125,0.07057400047779083,0.3461509943008423,0.5505049824714661
1710940805093727700,33.45272778320312,-0.4059939980506897,0.5336670279502869,0.7643370032310486
1710940805150147800,33.50914794921875,4.261703014373779,0.052181001752614975,-0.46477898955345154
1710940805206568000,33.56556787109375,0.12058500200510025,-0.3712019920349121,0.5469449758529663
1710940805262988000,33.621988037109375,-0.2737410068511963,-0.906889021396637,0.3115699887275696
1710940805319407900,33.67840795898437,-0.039480000734329224,-1.2497700452804565,-0.4108380079269409
1710940805375828000,33.73482788085938,-0.9803100228309631,-1.447059988975525,-1.11798894405365
1710940805432248000,33.791248046875,0.11830899864435196,-1.300413966178894,-0.5326240062713623
1710940805488668000,33.84766796875,-0.09377700090408325,-0.4918600022792816,-0.003957000095397234
1710940805545088000,33.904087890625,-1.1825430393218994,-0.18717899918556213,0.23357799649238586
1710940805601507800,33.9605078125,-0.2498520016670227,-0.24740499258041382,-0.09946099668741226
1710940805657928000,34.016927978515625,-0.11845699697732925,-0.10230699926614761,-0.04295799881219864
1710940805714348000,34.07334814453125,0.09423699975013733,0.1927420049905777,0.1116430014371872
1710940805770768100,34.12976806640625,-0.30503401160240173,0.3622730076313019,0.08631300181150436
1710940805827188000,34.18618798828125,-0.2018039971590042,0.5953980088233948,0.08835899829864502
1710940805883608000,34.242608154296875,-0.06338799744844437,0.7429460287094116,0.07192599773406982
1710940805940028000,34.29902783203125,0.4158029854297638,0.7229229807853699,-0.5165020227432251
1710940805996448000,34.35544799804688,-0.003851999994367361,0.6820150017738342,-0.5576789975166321
1710940806052868000,34.4118681640625,0.018093999475240707,0.7797830104827881,-0.7045729756355286
1710940806109288000,34.46828784179687,2.3106729984283447,-0.2988649904727936,-0.7242770195007324
1710940806165708000,34.5247080078125,0.5652080178260803,-0.6478660106658936,-0.8087509870529175
1710940806222128400,34.58112841796875,3.5475950241088867,-1.1365519762039185,-1.1572719812393188
1710940806278548500,34.637548583984376,-2.807832956314087,-0.8869199752807617,0.3300189971923828
1710940806334968000,34.69396801757812,-2.2104289531707764,-1.097735047340393,0.3565950095653534
1710940806391388400,34.75038842773437,0.21529899537563324,-1.7043379545211792,0.5340549945831299
1710940806447808300,34.806808349609376,1.529289960861206,-1.7318270206451416,0.030027000233530998
1710940806504228400,34.863228271484374,-0.7124959826469421,-0.992251992225647,0.13927899301052094
1710940806560648200,34.91964819335937,-1.8430169820785522,-0.19342799484729767,0.21511299908161163
1710940806617068300,34.976068359375,-0.05988499894738197,0.1083339974284172,0.19132000207901
1710940806673488400,35.03248828125,0.5912969708442688,0.2313999980688095,-0.008569999597966671
1710940806729908200,35.088908203125,1.2417939901351929,0.4774099886417389,-0.022477999329566956
1710940806786328300,35.14532836914063,0.0267730001360178,0.5410569906234741,0.1486169993877411
1710940806842748400,35.20174853515625,0.019189000129699707,0.4877839982509613,0.16697600483894348
1710940806899168300,35.258168212890624,-0.034832000732421875,0.307096004486084,0.47995901107788086
1710940806955588400,35.31458837890625,0.011345000006258488,0.26482999324798584,0.8276339769363403
1710940807012008400,35.37100854492188,0.24506999552249908,0.28183799982070923,1.0965659618377686
1710940807068428300,35.42742822265625,0.22256599366664886,0.3680109977722168,0.9290909767150879
1710940807124848400,35.48384838867187,0.1101749986410141,0.641182005405426,0.8838809728622437
1710940807181268200,35.54026831054688,2.3064119815826416,-0.27601200342178345,-0.1444920003414154
1710940807237688300,35.596688232421876,1.782884955406189,-0.4605189859867096,0.18687200546264648
1710940807294108400,35.6531083984375,-0.17248700559139252,-0.8059769868850708,-0.10436800122261047
1710940807350528300,35.7095283203125,-0.7501479983329773,-0.965503990650177,-0.4071030020713806
1710940807406948400,35.7659482421875,-1.2010929584503174,-1.142359972000122,-0.8214020133018494
1710940807463368400,35.822368408203126,-0.636309027671814,-1.2547249794006348,-1.1200679540634155
1710940807519788300,35.87878833007812,-0.11016900092363358,-1.003350019454956,-1.2505520582199097
1710940807576208400,35.93520849609375,0.2343059927225113,-0.43725401163101196,-0.5218639969825745
1710940807632628200,35.991628173828126,-0.5727499723434448,-0.04387199878692627,-0.10130500048398972
1710940807689048300,36.04804833984375,-0.21270699799060822,0.17613500356674194,-0.08837100118398666
1710940807745468400,36.10446850585937,0.08485600352287292,0.26185598969459534,-0.14606599509716034
1710940807801888300,36.16088818359375,0.46257999539375305,0.35299399495124817,0.0469990000128746
1710940807858308400,36.217308349609375,-0.10930699855089188,0.5527589917182922,0.26049700379371643
1710940807914728400,36.273728515625,0.09938599914312363,0.5766230225563049,0.2017419934272766
1710940807971148300,36.33014819335938,-0.358568012714386,0.6064029932022095,0.04763299971818924
1710940808027568400,36.386568359375,-0.11560100317001343,0.518779993057251,-0.2603900134563446
1710940808083988500,36.442988525390625,0.15810100734233856,0.49534499645233154,-0.6626710295677185
1710940808140408300,36.499408203125,0.2033659964799881,0.4648840129375458,-0.730105996131897
1710940808196828400,36.55582836914063,0.20914900302886963,-0.001680999994277954,-0.25995299220085144
1710940808253248300,36.612248291015625,1.323923945426941,-0.41482698917388916,-0.4762209951877594
1710940808309668400,36.66866845703125,2.808199882507324,-0.9959030151367188,-0.7655069828033447
1710940808366088400,36.72508837890625,-1.977918028831482,-0.8224430084228516,0.27379798889160156
1710940808422508300,36.78150830078125,-0.6896550059318542,-1.2427599430084229,0.5740320086479187
1710940808478928100,36.83792822265625,-0.051562000066041946,-1.3771330118179321,0.31583499908447266
1710940808535348000,36.89434790039063,0.9081400036811829,-1.5668829679489136,-0.2551020085811615
1710940808591768000,36.95076806640625,-0.2246370017528534,-0.9274730086326599,0.15511900186538696
1710940808648188200,37.007188232421875,-1.3262670040130615,-0.2247619926929474,0.05149900168180466
1710940808704608000,37.06360791015625,0.25296100974082947,-0.1240520030260086,0.2604070007801056
1710940808761028000,37.12002807617188,0.3206709921360016,-0.024607999250292778,0.23114900290966034
1710940808817448200,37.1764482421875,0.36403799057006836,0.05563100054860115,0.03336299955844879
1710940808873868000,37.23286791992187,-0.19584999978542328,0.22968100011348724,0.11650700122117996
1710940808930287900,37.28928784179688,-0.1793060004711151,0.3464969992637634,0.10724099725484848
1710940808986708000,37.3457080078125,-0.02538199909031391,0.3659529983997345,0.15704399347305298
1710940809043128000,37.402128173828125,0.20478400588035583,0.331726998090744,0.4553599953651428
1710940809099548000,37.4585478515625,0.36699798703193665,0.30747300386428833,0.5831279754638672
1710940809155968000,37.51496801757813,-0.05564500018954277,0.313401997089386,0.6934340000152588
1710940809212388000,37.57138818359375,-0.15234099328517914,0.6133620142936707,0.6882820129394531
1710940809268808000,37.62780786132812,2.0701379776000977,-0.21871599555015564,0.40218499302864075
1710940809325228000,37.68422802734375,0.12159900367259979,-0.030386999249458313,1.4807369709014893
1710940809381648000,37.74064794921875,0.12974700331687927,-0.26316601037979126,1.035051941871643
1710940809438067700,37.79706762695312,0.4953500032424927,-0.7114689946174622,0.021095000207424164
1710940809494487800,37.85348779296875,-0.5110780000686646,-0.8808979988098145,-0.2064259946346283
1710940809550907600,37.90990771484375,-0.22814300656318665,-1.0875600576400757,-0.38255101442337036
1710940809607327700,37.96632763671875,-0.034425001591444016,-1.2265729904174805,-0.8017039895057678
1710940809663747800,38.02274780273437,-0.16462799906730652,-1.1152030229568481,-0.8491219878196716
1710940809720167700,38.07916772460938,0.19899900257587433,-0.4868229925632477,-0.16085700690746307
1710940809776587800,38.135587890625,-0.8636509776115417,-0.09440699964761734,0.06860300153493881
1710940809833007600,38.19200756835937,-0.19872300326824188,0.05425800010561943,-0.22836099565029144
1710940809889427700,38.248427734375,0.1891700029373169,0.21103599667549133,-0.15461599826812744
1710940809945847800,38.30484790039063,0.5058280229568481,0.27421000599861145,0.22344399988651276
1710940810002267600,38.361267578125,-0.3133560121059418,0.3666679859161377,0.3490320146083832
1710940810058687500,38.4176875,-0.2740820050239563,0.5269140005111694,0.31441399455070496
1710940810115107300,38.474107421875,-0.2645519971847534,0.6589779853820801,0.04831700026988983
1710940810171527400,38.53052734375,0.04745899885892868,0.587224006652832,-0.44313400983810425
1710940810227947500,38.58694750976562,0.3250199854373932,0.5577080249786377,-0.7497209906578064
1710940810284367400,38.64336743164063,-0.14245299994945526,0.8901410102844238,-0.7426519989967346
1710940810340787500,38.699787353515624,1.6961590051651,-0.16772900521755219,-0.3469789922237396
1710940810397207300,38.75620727539062,0.6681450009346008,-0.24946799874305725,-0.3465549945831299
1710940810453627400,38.81262744140625,1.474045991897583,-0.6700969934463501,-0.24741600453853607
1710940810510047500,38.86904760742188,0.01155799999833107,-0.6954630017280579,0.2790369987487793
1710940810566467000,38.92546704101562,-1.0783179998397827,-0.8215500116348267,0.6511279940605164
1710940810622887400,38.98188745117187,-0.40046000480651855,-1.3038690090179443,0.684257984161377
1710940810679307000,39.03830712890625,-0.022710999473929405,-1.501755952835083,0.8846110105514526
1710940810735727000,39.09472705078125,0.7122889757156372,-1.2096420526504517,0.4598439931869507
1710940810792147200,39.15114721679687,-0.8447570204734802,-0.5261290073394775,-0.1214350014925003
1710940810848567000,39.20756713867188,-0.9851890206336975,-0.052469998598098755,-0.056106001138687134
1710940810904987100,39.263987060546874,0.1946749985218048,0.06890600174665451,-0.01097199972718954
1710940810961407000,39.32040698242187,-0.09145600348711014,0.18869100511074066,0.2832790017127991
1710940811017827000,39.3768271484375,0.5512359738349915,0.24473899602890015,0.36945900321006775
1710940811074247200,39.4332470703125,0.14386199414730072,0.6109730005264282,0.2857849895954132
1710940811130666800,39.48966674804687,-0.30986300110816956,0.6674299836158752,0.07735499739646912
1710940811187086800,39.5460869140625,0.158392995595932,0.62186199426651,0.15343999862670898
1710940811243507000,39.6025068359375,0.08304300159215927,0.6848490238189697,0.3364799916744232
1710940811299926800,39.6589267578125,0.29563599824905396,0.6119670271873474,0.5755620002746582
1710940811356347000,39.71534692382812,0.33687499165534973,0.5771210193634033,0.7560319900512695
1710940811412766700,39.7717666015625,1.146286964416504,-0.32455700635910034,-0.020022999495267868
1710940811469186800,39.828186767578124,0.11585299670696259,-0.4486449956893921,0.7938060164451599
1710940811525607000,39.88460693359375,2.270859956741333,-1.0607149600982666,0.47721898555755615
1710940811582026500,39.94102661132813,-1.0141359567642212,-0.80690598487854,0.623885989189148
1710940811638446600,39.997446533203124,-1.5289429426193237,-1.1199569702148438,-0.06000500172376633
1710940811694866400,40.05386645507812,-0.14122700691223145,-1.3606699705123901,-0.5576239824295044
1710940811751286500,40.11028662109375,0.3977130055427551,-0.9601849913597107,-0.32994401454925537
1710940811807706400,40.166706298828124,0.1879120022058487,-0.5623459815979004,-0.39313599467277527
1710940811864126500,40.22312646484375,-0.1393209993839264,-0.2670150101184845,-0.16786600649356842
1710940811920546300,40.27954638671875,-0.24121199548244476,-0.0617079995572567,-0.19064900279045105
1710940811976966100,40.335966064453125,0.1083969995379448,0.07211299985647202,-0.19946299493312836
1710940812033386200,40.39238623046875,-0.24874599277973175,0.0329429991543293,-0.22299499809741974
1710940812089806300,40.44880639648437,-0.14593100547790527,0.265049010515213,0.008342999964952469
1710940812146226200,40.50522607421875,0.11868300288915634,0.3916630148887634,0.24180200695991516
1710940812202646300,40.561646240234374,-0.11795999854803085,0.4815010130405426,-0.005477000027894974
1710940812259066000,40.61806616210937,0.09854099899530411,0.28116700053215027,0.5249639749526978
1710940812315486200,40.674486328125,0.004538999870419502,0.46445098519325256,0.08190300315618515
