time,seconds_elapsed,z,y,x
1710940771772902000,0.13190185546875,-0.08676250278949738,-0.5439500212669373,-0.4045250117778778
1710940771866935600,0.225935546875,0.09047500044107437,-0.320374995470047,-0.13199999928474426
1710940771960969500,0.319969482421875,0.13433749973773956,-0.2630375027656555,-0.48276248574256897
1710940772055003400,0.41400341796875,-0.01347499992698431,-0.5268999934196472,-0.33371248841285706
1710940772149037000,0.508037109375,0.28833749890327454,0.09858749806880951,-0.4545750021934509
1710940772243071000,0.602071044921875,0.07947500050067902,-0.050462499260902405,-0.15289999544620514
1710940772337104600,0.696104736328125,-0.11604999750852585,-0.6575250029563904,-0.43876248598098755
1710940772431138600,0.790138671875,-0.15386250615119934,-1.1706750392913818,0.29067498445510864
1710940772525172000,0.884171875,-0.11976250261068344,-0.5281375050544739,-0.8186749815940857
1710940772619206000,0.978205810546875,0.273624986410141,-0.8408125042915344,0.02681249938905239
1710940772713239800,1.07223974609375,0.0635249987244606,0.2733500003814697,0.0340999998152256
1710940772807273500,1.1662734375,-0.02199999988079071,-0.052799999713897705,-0.4375250041484833
1710940772901307400,1.260307373046875,0.4641999900341034,0.11453749984502792,-0.29823750257492065
1710940772995341300,1.35434130859375,0.16609999537467957,0.09858749806880951,-0.10395000129938126
1710940773089375000,1.448375,-0.02681249938905239,0.23182499408721924,-0.23100000619888306
1710940773183408600,1.54240869140625,0.03904999792575836,0.09006249904632568,-0.3702875077724457
1710940773277442600,1.636442626953125,-0.09281250089406967,-0.013749999925494194,0.04633750021457672
1710940773371476200,1.730476318359375,-0.004812499973922968,-0.05403750017285347,0.2186249941587448
1710940773465510100,1.82451025390625,-0.0672374963760376,-0.04675000160932541,0.35048750042915344
1710940773559544000,1.9185439453125,0.006049999967217445,0.0057749999687075615,0.08291249722242355
1710940773653577700,2.01257763671875,0.0085249999538064,-0.10408750176429749,0.007287499960511923
1710940773747611400,2.106611328125,-0.0170499999076128,0.002199999988079071,0.09157499670982361
1710940773841645300,2.200645263671875,0.010999999940395355,0.03753750026226044,0.07686249911785126
1710940773935679000,2.294678955078125,0.032999999821186066,0.0644875019788742,0.015812499448657036
1710940774029712600,2.388712646484375,0.042762499302625656,0.0644875019788742,0.028049999848008156
1710940774123746600,2.48274658203125,0.03671250119805336,0.011962499469518661,0.05362499877810478
1710940774217780200,2.5767802734375,0.06599999964237213,0.0032999999821186066,-0.007424999959766865
1710940774311814100,2.670814208984375,0.057475000619888306,-0.013749999925494194,0.006049999967217445
1710940774405848000,2.76484814453125,0.05252499878406525,-0.006462499964982271,-0.006187499966472387
1710940774499881500,2.858881591796875,0.06228749826550484,-0.010037500411272049,-0.030662499368190765
1710940774593915400,2.952915283203125,0.07328750193119049,0.021724998950958252,0.010862499475479126
1710940774687949300,3.04694921875,0.030524998903274536,0.05224999785423279,0.030387500301003456
1710940774781983000,3.14098291015625,-0.0012374999932944775,0.03506249934434891,0.05967500060796738
1710940774876017000,3.235016845703125,0.00976249948143959,0.007012499962002039,0.06462500244379044
1710940774970050600,3.329050537109375,-0.01223750039935112,-0.056512501090765,0.0193875003606081
1710940775064084500,3.42308447265625,-0.028049999848008156,-0.018699999898672104,0.032862499356269836
1710940775158118100,3.5171181640625,-0.028049999848008156,-0.018699999898672104,0.009624999947845936
1710940775252152000,3.611152099609375,-0.04647500067949295,-0.06503749638795853,0.0010999999940395355
1710940775346186000,3.70518603515625,-0.02447500079870224,0.05348749831318855,-0.06737499684095383
1710940775440219600,3.7992197265625,-0.059812501072883606,-0.113987497985363,0.1391499936580658
1710940775534253300,3.89325341796875,-0.08923749625682831,-0.19085000455379486,-0.10271249711513519
1710940775628287200,3.987287353515625,-0.14904999732971191,-0.045512501150369644,0.06833750009536743
1710940775722321000,4.08132080078125,-0.22481249272823334,-0.05156249925494194,0.049912501126527786
1710940775816354800,4.175354736328125,-0.2162874937057495,-0.060224998742341995,-0.0147124994546175
1710940775910388500,4.269388427734375,-0.25286251306533813,-0.018699999898672104,0.027912499383091927
1710940776004422400,4.36342236328125,-0.2798124849796295,0.025299999862909317,-0.015949999913573265
1710940776098456300,4.457456298828125,-0.2773374915122986,0.0448249988257885,-0.052662499248981476
1710940776192490200,4.551490234375,-0.2480500042438507,-0.04675000160932541,-0.10518749803304672
1710940776286524000,4.64552392578125,-0.1845249980688095,-0.1200374960899353,-0.0147124994546175
1710940776380557600,4.7395576171875,-0.15152500569820404,-0.030799999833106995,-0.012374999932944775
1710940776474591500,4.833591552734375,-0.04028749838471413,-0.005224999971687794,-0.037950001657009125
1710940776568625200,4.927625244140625,0.06104999780654907,0.04001250118017197,0.08291249722242355
1710940776662659000,5.0216591796875,0.05871250107884407,0.04124999791383743,0.037812501192092896
1710940776756693000,5.11569287109375,0.11233749985694885,0.09253749996423721,0.045099999755620956
1710940776850726700,5.2097265625,0.11976250261068344,0.0668250024318695,0.08291249722242355
1710940776944760300,5.30376025390625,0.11976250261068344,0.06324999779462814,0.08057499676942825
1710940777038794200,5.397794189453125,0.15633749961853027,0.08524999767541885,0.09515000134706497
1710940777132828200,5.491828125,0.21504999697208405,0.1060125008225441,0.08415000140666962
1710940777226861800,5.58586181640625,0.29809999465942383,-0.0002749999985098839,0.11467500030994415
1710940777320895700,5.679895751953125,0.23952500522136688,0.12182500213384628,-0.023375000804662704
1710940777414929400,5.773929443359375,0.26510000228881836,0.15853749215602875,-0.05142499879002571
1710940777508963000,5.867963134765625,0.20652499794960022,0.39311251044273376,-0.14794999361038208
1710940777602997000,5.9619970703125,0.12099999934434891,0.06077500060200691,-0.008662499487400055
1710940777697031000,6.056031005859375,0.08428750187158585,-0.055275000631809235,0.0193875003606081
1710940777791064600,6.150064697265625,-0.059812501072883606,-0.002749999985098839,0.11591249704360962
1710940777885098500,6.244098388671875,-0.03657500073313713,0.16830000281333923,0.5069624781608582
1710940777979132400,6.33813232421875,-0.11233749985694885,-0.23732499778270721,0.381012499332428
1710940778073166300,6.432166259765625,0.11852499842643738,-0.1200374960899353,0.11715000122785568
1710940778167200000,6.526199951171875,-0.04647500067949295,-0.11027500033378601,0.08057499676942825
1710940778261234000,6.62023388671875,-0.12952500581741333,0.07782500237226486,0.09515000134706497
1710940778355267600,6.714267578125,-0.17833749949932098,0.346637487411499,0.35048750042915344
1710940778449301200,6.80830126953125,-0.17352500557899475,0.35282498598098755,0.42143750190734863
1710940778543335200,6.902335205078125,-0.2810499966144562,0.12677499651908875,0.2186249941587448
1710940778637368800,6.996368896484375,-0.10023749619722366,-0.07479999959468842,0.2576749920845032
1710940778731402800,7.09040283203125,-0.08676250278949738,-0.43642500042915344,-0.01718750037252903
1710940778825436700,7.184436767578125,-0.15633749961853027,-0.5549499988555908,-0.28971248865127563
1710940778919470600,7.278470703125,-0.06104999780654907,0.28187498450279236,0.3469125032424927
1710940779013504300,7.372504150390625,0.2761000096797943,0.08758749812841415,-0.012374999932944775
1710940779107538200,7.4665380859375,0.4006749987602234,0.13282500207424164,0.035337500274181366
1710940779201572000,7.560572021484375,0.3909125030040741,0.20858749747276306,0.11343749612569809
1710940779295605800,7.654605712890625,0.21504999697208405,-0.07232499867677689,-0.0037124999798834324
1710940779389639400,7.748639404296875,0.05128749832510948,-0.06503749638795853,0.08786249905824661
1710940779483673300,7.84267333984375,0.13557499647140503,-0.07356250286102295,-0.18342499434947968
1710940779577707300,7.936707275390625,0.09404999762773514,-0.10408750176429749,-0.16266250610351562
1710940779671741000,8.030740966796875,-0.2810499966144562,-0.13598750531673431,-0.22728750109672546
1710940779765774800,8.12477490234375,-0.2956250011920929,0.20611250400543213,0.07562500238418579
1710940779859808500,8.21880859375,-0.11976250261068344,-0.03946249932050705,0.0010999999940395355
1710940779953842400,8.312842529296875,-0.08057499676942825,-0.07479999959468842,0.05486249923706055
1710940780047876400,8.40687646484375,0.057475000619888306,0.0387750007212162,0.008387500420212746
1710940780141910000,8.500909912109375,0.07081250101327896,-0.06627500057220459,-0.025712499395012856
1710940780235943700,8.594943603515626,0.08304999768733978,-0.08951249718666077,-0.06971249729394913
1710940780329977600,8.6889775390625,0,-0.04427500069141388,0.05857500061392784
1710940780424011300,8.78301123046875,-0.11481250077486038,-0.11275000125169754,0.14038750529289246
1710940780518045200,8.877045166015625,-0.2480500042438507,0.07177499681711197,-0.047712501138448715
1710940780612079000,8.9710791015625,-0.3053874969482422,0.1340624988079071,0.7133499979972839
1710940780706113000,9.065113037109375,-0.18562500178813934,-0.4413749873638153,-0.6634374856948853
1710940780800146400,9.159146484375,-0.19786250591278076,0.06572499871253967,0.27719998359680176
1710940780894180600,9.2531806640625,-0.0695749968290329,-0.1297999918460846,-0.01718750037252903
1710940780988214300,9.34721435546875,0.10257499665021896,-0.13598750531673431,0.0976250022649765
1710940781082248200,9.441248291015626,0.057475000619888306,0.04606249928474426,0.10862500220537186
1710940781176281900,9.53528173828125,-0.02928750030696392,0.18177500367164612,0.057337500154972076
1710940781270315800,9.629315673828126,0.0147124994546175,0.15111249685287476,0.015812499448657036
1710940781364349400,9.723349365234375,0.08181250095367432,0.14024999737739563,0.023099999874830246
1710940781458383400,9.81738330078125,0.16499999165534973,0.11329999566078186,-0.00013749999925494194
1710940781552417000,9.9114169921875,0.3848625123500824,-0.045512501150369644,0.14767499268054962
1710940781646451000,10.005450927734374,-0.04152499884366989,-0.3900874853134155,-0.8504375219345093
1710940781740484600,10.099484619140625,-0.3493874967098236,0.2903999984264374,0.43972501158714294
1710940781834518500,10.1935185546875,0.06476250290870667,0.09006249904632568,-0.2297624945640564
1710940781928552200,10.28755224609375,-0.010999999940395355,0.0742499977350235,-0.1284250020980835
1710940782022585900,10.3815859375,0.08304999768733978,-0.021037500351667404,-0.013612499460577965
1710940782116619800,10.475619873046876,0.1050499975681305,-0.04179999977350235,0.0340999998152256
1710940782210653700,10.56965380859375,0.08676250278949738,0.014299999922513962,-0.006187499966472387
1710940782304687400,10.663687255859376,-0.02447500079870224,-0.06503749638795853,-0.030662499368190765
1710940782398721300,10.75772119140625,-0.09157499670982361,-0.01979999989271164,0.07067500054836273
1710940782492755000,10.8517548828125,-0.10257499665021896,-0.04922499880194664,0.05238749831914902
1710940782586788900,10.945788818359375,-0.1722874939441681,-0.0845625028014183,0.14162500202655792
1710940782680822500,11.039822509765624,-0.2870999872684479,-0.2153249979019165,0.5057250261306763
1710940782774856400,11.1338564453125,-0.3531000018119812,-0.3716624975204468,-0.32381248474121094
1710940782868890000,11.22789013671875,-0.3371500074863434,0.03272499889135361,0.20391249656677246
1710940782962924000,11.321924072265626,-0.11976250261068344,-0.320374995470047,-0.05871250107884407
1710940783056958000,11.4159580078125,0.028049999848008156,-0.13598750531673431,0.06710000336170197
1710940783150991400,11.509991455078126,0.02928750030696392,0.12677499651908875,0.08057499676942825
1710940783245025300,11.604025390625,0.07328750193119049,0.11453749984502792,0.025575000792741776
1710940783339059200,11.69805908203125,0.14904999732971191,0.15234999358654022,-0.03437500074505806
1710940783433092900,11.7920927734375,0.23333749175071716,0.15482500195503235,-0.013612499460577965
1710940783527126800,11.886126708984374,0.18809999525547028,0.11935000121593475,0.08415000140666962
1710940783621160400,11.980160400390625,0.17352500557899475,0.04977500066161156,0.09267500042915344
1710940783715194000,12.074194091796874,0.4641999900341034,-0.19456249475479126,-0.38005000352859497
1710940783809228000,12.16822802734375,0.03671250119805336,0.30387499928474426,0.16609999537467957
1710940783903261700,12.26226171875,-0.020762499421834946,-0.07232499867677689,-0.3642374873161316
1710940783997295600,12.356295654296876,-0.08057499676942825,0.2965874969959259,-0.11618749797344208
1710940784091329300,12.450329345703125,0.10752499848604202,0.1060125008225441,-0.19676250219345093
1710940784185363200,12.54436328125,-0.02928750030696392,-0.03698749840259552,0.07315000146627426
1710940784279397000,12.638397216796875,0.018287500366568565,-0.19456249475479126,0.030387500301003456
1710940784373430800,12.7324306640625,-0.0012374999932944775,-0.1237500011920929,-0.047712501138448715
1710940784467464400,12.82646435546875,-0.04152499884366989,-0.05403750017285347,-0.045375000685453415
1710940784561498400,12.920498291015624,-0.0989999994635582,-0.013749999925494194,0.030387500301003456
1710940784655532000,13.014531982421875,-0.17104999721050262,0.015537500381469727,0.2209624946117401
1710940784749565700,13.108565673828124,-0.1868624985218048,0.004537499975413084,0.16609999537467957
1710940784843599400,13.202599365234375,-0.08304999768733978,-0.2653749883174896,-0.11371249705553055
1710940784937633300,13.29663330078125,-0.23828749358654022,-0.6380000114440918,-0.5303375124931335
1710940785031667200,13.390667236328126,-0.13928750157356262,0.14506250619888306,0.15015000104904175
1710940785125700900,13.484700927734375,-0.04152499884366989,-0.28380000591278076,-0.03671250119805336
1710940785219734500,13.578734619140626,0.11481250077486038,-0.018699999898672104,0.1391499936580658
1710940785313768200,13.672768310546875,0.09281250089406967,0.05582499876618385,0.057337500154972076
1710940785407802000,13.766802001953126,0.010999999940395355,0.06201250106096268,-0.040424998849630356
1710940785501835800,13.860835693359375,0.0012374999932944775,0.06806249916553497,-0.07466249912977219
1710940785595869700,13.95486962890625,0.035475000739097595,0.1120624989271164,-0.1699499934911728
1710940785689903400,14.0489033203125,0.042762499302625656,-0.09679999947547913,0.03891250118613243
1710940785783937000,14.14293701171875,0.17476250231266022,-0.03451250120997429,-0.5266249775886536
1710940785877971000,14.236970947265625,0.045237500220537186,0.11935000121593475,0.21367499232292175
1710940785972004600,14.331004638671875,0.08304999768733978,0.05101250112056732,-0.48633748292922974
1710940786066038300,14.425038330078126,-0.10023749619722366,0.3051125109195709,0.13420000672340393
1710940786160072000,14.519072021484375,0.0085249999538064,0.1023000031709671,0.008387500420212746
1710940786254105900,14.61310595703125,-0.0037124999798834324,0.11329999566078186,0.01209999993443489
1710940786348139500,14.707139404296875,0.08057499676942825,-0.040562499314546585,-0.05637500062584877
1710940786442173200,14.801173095703126,0.05623750016093254,-0.014987500384449959,-0.02461249940097332
1710940786536207000,14.89520703125,0.0147124994546175,-0.023512499406933784,-0.06613750010728836
1710940786630240800,14.98924072265625,-0.07204999774694443,-0.0919874981045723,0.03657500073313713
1710940786724274400,15.0832744140625,-0.16609999537467957,-0.0002749999985098839,0.009624999947845936
1710940786818308000,15.17730810546875,-0.282150000333786,-0.052799999713897705,-0.16499999165534973
1710940786912342000,15.271342041015625,-0.2675749957561493,0.2465374916791916,0.01691249944269657
1710940787006375700,15.365375732421874,-0.2675749957561493,-0.17256249487400055,-0.14300000667572021
1710940787100409600,15.45940966796875,-0.24928750097751617,-0.25437501072883606,0.08538749814033508
1710940787194443000,15.553443115234375,-0.08057499676942825,-0.1237500011920929,0.035337500274181366
1710940787288477000,15.647476806640626,0.02928750030696392,-0.060224998742341995,-0.035612501204013824
1710940787382510600,15.741510498046875,0.08304999768733978,0.08648750185966492,0.062150001525878906
1710940787476544300,15.835544189453126,0.07576250284910202,0.10353749990463257,0.01209999993443489
1710940787570578000,15.929577880859375,0.11604999750852585,0.17311249673366547,-0.007424999959766865
1710940787664611600,16.023611572265626,0.22110000252723694,0.12182500213384628,-0.008662499487400055
1710940787758645500,16.1176455078125,0.30662500858306885,-0.02969999983906746,0.18796250224113464
1710940787852679200,16.21167919921875,0.5094375014305115,-0.6564249992370605,-0.040424998849630356
1710940787946712800,16.305712890625,0.10147500038146973,-0.010037500411272049,-0.01966249942779541
1710940788040746500,16.39974658203125,0.34814998507499695,0.17434999346733093,-0.3250499963760376
1710940788134780400,16.493780517578124,0.032999999821186066,0.12925000488758087,0.018149999901652336
1710940788228813800,16.587813720703124,0.11123749613761902,0.18177500367164612,-0.057475000619888306
1710940788322847700,16.68184765625,0.07452499866485596,-0.040562499314546585,-0.09913749992847443
1710940788416881400,16.77588134765625,-0.028049999848008156,-0.13832500576972961,0.05609999969601631
1710940788510915000,16.8699150390625,-0.11233749985694885,0.024062499403953552,0.02433750033378601
1710940788604948700,16.96394873046875,-0.1050499975681305,-0.09927500039339066,0.045099999755620956
1710940788698982700,17.057982666015626,-0.10628750175237656,-0.021037500351667404,0.007149999961256981
1710940788793016000,17.15201611328125,-0.1722874939441681,-0.07122500240802765,0.170912504196167
1710940788887050000,17.246050048828124,-0.18205000460147858,-0.14685000479221344,0.2087250053882599
1710940788981083400,17.34008349609375,-0.1588124930858612,-0.142037495970726,-0.16747500002384186
1710940789075117300,17.434117431640626,-0.2773374915122986,0.17311249673366547,-0.10395000129938126
1710940789169151000,17.52815087890625,-0.09157499670982361,0.04853750020265579,0.05238749831914902
1710940789263184600,17.6221845703125,-0.02199999988079071,-0.12732499837875366,-0.07713750004768372
1710940789357218300,17.71621826171875,-0.007287499960511923,-0.1652749925851822,-0.033137500286102295
1710940789451252000,17.810251953125,0.1307625025510788,0.08401250094175339,0.03891250118613243
1710940789545285600,17.90428564453125,0.06599999964237213,-0.016224998980760574,-0.028187500312924385
1710940789639319300,17.9983193359375,0.0085249999538064,0.024062499403953552,0.009624999947845936
1710940789733353000,18.09235302734375,0.02447500079870224,0.011962499469518661,-0.02461249940097332
1710940789827387000,18.186386962890627,0.030524998903274536,0.04729999974370003,0.015812499448657036
1710940789921420300,18.280420166015624,-0.00976249948143959,-0.038224998861551285,-0.00494999997317791
1710940790015454000,18.374453857421877,-0.015812499448657036,0.11935000121593475,0.05362499877810478
1710940790109487600,18.468487548828126,0.07452499866485596,0.179299995303154,0.015812499448657036
1710940790203521300,18.562521240234375,0.23704999685287476,-0.04179999977350235,0.4017750024795532
1710940790297555000,18.656554931640624,0.02694999985396862,0.18906250596046448,-0.06971249729394913
1710940790391588600,18.750588623046873,0.13557499647140503,-0.082225002348423,-0.19442500174045563
1710940790485622300,18.844622314453126,-0.01952499896287918,0.25987499952316284,-0.030662499368190765
1710940790579656200,18.93865625,0.10023749619722366,0.15234999358654022,0.1354375034570694
1710940790673689600,19.032689697265624,0.04399999976158142,-0.038224998861551285,0.0193875003606081
1710940790767723500,19.1267236328125,0.015949999913573265,-0.06875000149011612,-0.012374999932944775
1710940790861757000,19.2207568359375,0.010999999940395355,-0.02969999983906746,-0.11247500032186508
1710940790955790800,19.314790771484375,0.0037124999798834324,-0.014987500384449959,-0.0611874982714653
1710940791049824300,19.40882421875,0.04399999976158142,-0.050462499260902405,-0.045375000685453415
1710940791143858000,19.50285791015625,0.010999999940395355,-0.06751249730587006,-0.050187498331069946
1710940791237891600,19.5968916015625,-0.057475000619888306,-0.005224999971687794,0.03162499889731407
1710940791331925200,19.69092529296875,-0.0989999994635582,0.3051125109195709,-0.16266250610351562
1710940791425959000,19.784958984375,-0.0989999994635582,0.011962499469518661,0.42996248602867126
1710940791519992600,19.87899267578125,-0.19786250591278076,-0.17503750324249268,-0.1467124968767166
1710940791614026200,19.973026123046875,-0.0989999994635582,0.11935000121593475,0.19538749754428864
1710940791708059600,20.0670595703125,0.04028749838471413,-0.3436124920845032,-0.22852499783039093
1710940791802093600,20.161093505859377,-0.007287499960511923,-0.20061250030994415,0.025575000792741776
1710940791896127000,20.255126953125,0.09776250272989273,0.12306249886751175,0.12691250443458557
1710940791990160600,20.34916064453125,0.05004999786615372,0.1597750037908554,0.02186249941587448
1710940792084194000,20.443194091796876,0.16733749210834503,0.17434999346733093,-0.013612499460577965
1710940792178228000,20.53722802734375,0.11357499659061432,0.13529999554157257,0.03162499889731407
1710940792272261600,20.63126171875,0.04647500067949295,0.01677500084042549,-0.0038499999791383743
1710940792366295000,20.725294921875,0.04028749838471413,0.03148749843239784,0.08786249905824661
1710940792460328700,20.81932861328125,0.05623750016093254,-0.0002749999985098839,-0.08689999580383301
1710940792554362400,20.9133623046875,0.11728750169277191,0.05706249922513962,0.3137750029563904
1710940792648396000,21.00739599609375,-0.0672374963760376,0.2793999910354614,-0.22123749554157257
1710940792742429700,21.1014296875,-0.13805000483989716,0.03753750026226044,0.14038750529289246
1710940792836463000,21.195463134765625,0.06599999964237213,0.14135000109672546,-0.11247500032186508
1710940792930497000,21.2894970703125,0.04152499884366989,-0.0002749999985098839,0.09267500042915344
1710940793024530400,21.383530517578127,-0.015812499448657036,-0.1335124969482422,-0.005087499972432852
1710940793118564000,21.477564208984376,0.007287499960511923,0.11701250076293945,0.062150001525878906
1710940793212597800,21.57159765625,0.047712501138448715,0.09624999761581421,-0.042899999767541885
1710940793306631400,21.66563134765625,0.0989999994635582,0.03629999980330467,-0.011137500405311584
1710940793400664800,21.759664794921875,0.10876250267028809,-0.07356250286102295,0.013337500393390656
1710940793494698500,21.853698486328124,0.00976249948143959,-0.17132499814033508,-0.020899999886751175
1710940793588732200,21.947732177734373,-0.08923749625682831,-0.13227500021457672,-0.05142499879002571
1710940793682765600,22.041765625,-0.14904999732971191,-0.09927500039339066,-0.07590000331401825
1710940793776799200,22.13579931640625,-0.18205000460147858,-0.013749999925494194,0.01691249944269657
1710940793870833000,22.2298330078125,-0.08552499860525131,-0.03698749840259552,0.27719998359680176
1710940793964866600,22.323866455078125,-0.0147124994546175,-0.1335124969482422,-0.2639999985694885
1710940794058900000,22.41789990234375,-0.1331000030040741,0.10724999755620956,0.023099999874830246
1710940794152933600,22.51193359375,-0.13805000483989716,-0.28008750081062317,-0.10642500221729279
1710940794246967000,22.605967041015624,-0.02199999988079071,-0.03698749840259552,-0.02694999985396862
1710940794341000700,22.700000732421874,-0.08676250278949738,-0.02969999983906746,0.040150001645088196
1710940794435034400,22.794034423828126,0.07452499866485596,0.08030000329017639,-0.0013749999925494194
1710940794529068000,22.888068115234375,0.17352500557899475,0.17077499628067017,-0.06613750010728836
1710940794623101400,22.982101318359376,0.2480500042438507,0.1938749998807907,-0.0611874982714653
1710940794717135000,23.076135009765625,0.29438748955726624,0.12925000488758087,0.02433750033378601
1710940794811168500,23.17016845703125,0.4226749837398529,0.10353749990463257,0.08786249905824661
1710940794905202200,23.2642021484375,0.467912495136261,-0.18851250410079956,-0.5913875102996826
1710940794999235600,23.358235595703125,0.26881250739097595,-0.4889499843120575,0.5875374674797058
1710940795093269200,23.452269287109374,0.018287500366568565,0.5469750165939331,0.38596248626708984
1710940795187303000,23.546302978515627,0.44343748688697815,-0.14698749780654907,-0.12113749980926514
1710940795281336300,23.64033642578125,-0.11976250261068344,0.08277499675750732,-0.08689999580383301
1710940795375369700,23.73436962890625,-0.0635249987244606,0.14506250619888306,-0.055137500166893005
1710940795469403400,23.8284033203125,-0.18081249296665192,0.09858749806880951,-0.09171249717473984
1710940795563437000,23.92243701171875,-0.17586250603199005,-0.0919874981045723,-0.12347500026226044
1710940795657470500,24.016470458984376,-0.2503874897956848,-0.07246249914169312,-0.06737499684095383
1710940795751504100,24.110504150390625,-0.3053874969482422,-0.02227500081062317,-0.01718750037252903
1710940795845537500,24.20453759765625,-0.30057498812675476,-0.11522500216960907,0.03657500073313713
1710940795939571200,24.2985712890625,-0.21133749186992645,-0.10422500222921371,0.01209999993443489
1710940796033604600,24.3926044921875,-0.1270499974489212,0.14258749783039093,0.07438749819993973
1710940796127638000,24.486637939453125,0.0317624993622303,0.06324999779462814,0.5313000082969666
1710940796221671700,24.580671630859374,0.07452499866485596,-0.12498749792575836,0.004812499973922968
1710940796315705300,24.674705322265623,-0.02681249938905239,-0.02969999983906746,-0.007424999959766865
1710940796409738800,24.76873876953125,0.12581250071525574,0.23182499408721924,0.18672500550746918
1710940796503772400,24.8627724609375,0,-0.10422500222921371,-0.23100000619888306
1710940796597805800,24.956805908203126,0.14300000667572021,0.10958749800920486,-0.28600001335144043
1710940796691839500,25.050839599609375,0.20528750121593475,0.0032999999821186066,-0.045375000685453415
1710940796785873000,25.144872802734376,0.25533750653266907,0.10477499663829803,-0.005087499972432852
1710940796879906600,25.238906494140625,0.39338749647140503,0.147537499666214,-0.02461249940097332
1710940796973940000,25.33293994140625,0.3128125071525574,0.521399974822998,0.07438749819993973
1710940797067973400,25.426973388671875,0.14423750340938568,-0.06627500057220459,0.3236750066280365
1710940797162007000,25.521007080078125,0.01223750039935112,-0.12127500027418137,0.769587516784668
1710940797256040700,25.615040771484374,-0.24681249260902405,-0.13708749413490295,0.19043749570846558
1710940797350073900,25.709073974609375,-0.4263874888420105,-0.5159000158309937,0.1428624987602234
1710940797444107500,25.803107421875,-0.8295375108718872,-0.028462499380111694,-0.22495000064373016
1710940797538141000,25.897140869140625,-0.7892500162124634,-0.13227500021457672,-0.21642500162124634
1710940797632174600,25.991174560546874,-0.6254875063896179,-0.32161250710487366,-0.13571250438690186
1710940797726208000,26.0852080078125,-0.5167250037193298,-0.23608750104904175,-0.09913749992847443
1710940797820241700,26.17924169921875,-0.6462500095367432,-0.13598750531673431,0.11219999939203262
1710940797914275000,26.273275146484377,-0.5143874883651733,-0.06627500057220459,-0.15771250426769257
1710940798008308500,26.36730859375,-0.30057498812675476,-0.22027499973773956,0.4482499957084656
1710940798102342000,26.461341796875,-0.4092000126838684,-0.11756250262260437,0.02186249941587448
1710940798196375600,26.55537548828125,-0.6927250027656555,-0.4096125066280365,-0.16513749957084656
1710940798290409000,26.649408935546877,-0.5131499767303467,0.4371125102043152,0.37619999051094055
1710940798384442600,26.743442626953126,-0.3078624904155731,-0.08579999953508377,-0.41923749446868896
1710940798478476000,26.83747607421875,-0.09157499670982361,0.1280124932527542,-0.42528748512268066
1710940798572509400,26.931509521484376,0.12099999934434891,0.3051125109195709,0.09886249899864197
1710940798666542800,27.02554296875,0.29081249237060547,0.10958749800920486,0.02186249941587448
1710940798760576500,27.119576416015626,0.3665750026702881,-0.007699999958276749,0.13667500019073486
1710940798854610000,27.21360986328125,0.28462499380111694,0.19030000269412994,0.037675000727176666
1710940798948643300,27.307643310546876,0.07947500050067902,-0.28737500309944153,0.5240125060081482
1710940799042677000,27.401677001953125,-0.16376249492168427,-0.3936625123023987,0.5960624814033508
1710940799136710100,27.495710205078126,-0.20886249840259552,0.16101250052452087,0.027912499383091927
1710940799230743800,27.589743896484375,-0.2956250011920929,-0.13832500576972961,-0.49252501130104065
1710940799324777200,27.683777099609376,-0.7807250022888184,-0.2433750033378601,0.014574999921023846
1710940799418810600,27.777810546875,-0.5999125242233276,0.19634999334812164,-0.36781248450279236
1710940799512844300,27.87184423828125,-0.5522000193595886,-0.03698749840259552,-0.030662499368190765
1710940799606877700,27.965877685546875,-0.3653374910354614,-0.1652749925851822,-0.08442500233650208
1710940799700911000,28.0599111328125,-0.24928750097751617,-0.0882750004529953,-0.08071249723434448
1710940799794944800,28.15394482421875,-0.1013374999165535,-0.0882750004529953,-0.020899999886751175
1710940799888978000,28.24797802734375,-0.057475000619888306,-0.4218499958515167,-0.3702875077724457
1710940799983011600,28.342011474609375,0.10023749619722366,0.15001249313354492,0.32848748564720154
1710940800077045000,28.436044921875,0.3250499963760376,0.18411250412464142,0.38472500443458557
1710940800171078400,28.530078369140625,0.2870999872684479,-0.0919874981045723,0.1073874980211258
1710940800265112000,28.624112060546874,0.476437509059906,0.5372124910354614,-0.04413750022649765
1710940800359145200,28.718145263671875,0.7612000107765198,0.31735000014305115,-0.30428749322891235
1710940800453178600,28.8121787109375,0.817300021648407,-0.11756250262260437,-0.43133750557899475
1710940800547212300,28.90621240234375,0.8405374884605408,0.17077499628067017,-0.025849999859929085
1710940800641245700,29.00024560546875,0.7024874687194824,0.2012999951839447,0.05362499877810478
1710940800735279000,29.094279052734375,0.6744375228881836,0.17806249856948853,0.05609999969601631
1710940800829312500,29.1883125,0.5387250185012817,0.08648750185966492,0.07933750003576279
1710940800923346200,29.28234619140625,0.3983374834060669,-0.047987498342990875,-0.1247124969959259
1710940801017379600,29.376379638671875,0.2858625054359436,-0.2593249976634979,0.202674999833107
1710940801111413000,29.4704130859375,0.1551000028848648,0.0387750007212162,0.17943750321865082
1710940801205446400,29.5644462890625,0.4129124879837036,0.3746874928474426,0.004812499973922968
1710940801299479800,29.658479736328125,0.24062499403953552,0.13901250064373016,-0.16266250610351562
1710940801393513200,29.75251318359375,-0.0085249999538064,-0.056512501090765,-0.21271249651908875
1710940801487546600,29.846546630859375,0.11357499659061432,0.3539249897003174,-0.17489999532699585
1710940801581580000,29.940580078125,0.015949999913573265,-0.19456249475479126,-0.08195000141859055
1710940801675613700,30.03461376953125,-0.10381250083446503,-0.1970375031232834,-0.03437500074505806
1710940801769647000,30.128647216796875,-0.1270499974489212,-0.056512501090765,0.015675000846385956
1710940801863680500,30.222680419921875,-0.16376249492168427,-0.2947999835014343,0.18548749387264252
1710940801957714000,30.3167138671875,-0.08057499676942825,-0.28613749146461487,0.2539624869823456
1710940802051747300,30.410747314453126,0.16128750145435333,0.14135000109672546,0.2796750068664551
1710940802145780700,30.50478076171875,0.36038750410079956,0.05582499876618385,0.15372499823570251
1710940802239814100,30.598814208984376,0.43367499113082886,0.07782500237226486,0.035337500274181366
1710940802333847800,30.692847900390625,0.7012500166893005,0.22453749179840088,-0.2714250087738037
1710940802427881000,30.786880859375,1.1459250450134277,0.54339998960495,-0.21876250207424164
1710940802521914400,30.880914306640626,1.4294500350952148,0.10106249898672104,-0.46076250076293945
1710940802615947800,30.97494775390625,1.6530250310897827,0.19511249661445618,-0.16747500002384186
1710940802709981200,31.068981201171876,1.6713124513626099,0.2391124963760376,-0.13695000112056732
1710940802804014800,31.163014892578126,1.4929749965667725,0.3283500075340271,-0.0929500013589859
1710940802898048000,31.257048095703126,1.4502124786376953,0.2891624867916107,-0.0906125009059906
1710940802992081700,31.35108154296875,1.3524500131607056,0.0668250024318695,-0.09542500227689743
1710940803086114800,31.44511474609375,1.2461625337600708,-0.047987498342990875,-0.2494249939918518
1710940803180148500,31.5391484375,1.3329249620437622,0.45416250824928284,-0.17613749206066132
1710940803274182000,31.633181884765627,1.4317874908447266,0.30016249418258667,0.08043749630451202
1710940803368215000,31.727215087890624,1.7776000499725342,0.906125009059906,-0.3568125069141388
1710940803462248700,31.821248779296877,1.705549955368042,-0.0015124999918043613,-0.305525004863739
1710940803556281900,31.91528173828125,1.5162124633789062,0.2648249864578247,0.010862499475479126
1710940803650315500,32.0093154296875,1.4355000257492065,0.05224999785423279,-0.2591874897480011
1710940803744348700,32.1033486328125,1.0153000354766846,0.0668250024318695,-0.17847499251365662
1710940803838382000,32.19738208007813,0.7525374889373779,0.18535000085830688,-0.1601874977350235
1710940803932415700,32.291415771484374,0.4936249852180481,0.013062499463558197,-0.1564749926328659
1710940804026449000,32.385448974609375,0.5094375014305115,0.024062499403953552,-0.05389999970793724
1710940804120482300,32.479482421875,0.38609999418258667,0.27582499384880066,0.10243749618530273
1710940804214515700,32.573515625,0.4141499996185303,0.027775000780820847,0.3969624936580658
1710940804308549400,32.66754931640625,0.5376250147819519,0.2770625054836273,0.2209624946117401
1710940804402582500,32.76158251953125,0.4776749908924103,-0.15798750519752502,0.02667500078678131
1710940804496616000,32.855615966796876,0.39586248993873596,0.08030000329017639,-0.03189999982714653
1710940804590649300,32.9496494140625,0.5974375009536743,0.13653749227523804,-0.14313749969005585
1710940804684682800,33.04368286132812,0.7917249798774719,0.030249999836087227,-0.06737499684095383
1710940804778716200,33.13771606445312,0.6584874987602234,0.04124999791383743,0.08167500048875809
1710940804872749300,33.231749267578124,0.45938751101493835,0.18053749203681946,0.08043749630451202
1710940804966783000,33.32578295898438,0.33233749866485596,0.13653749227523804,0.02433750033378601
1710940805060816100,33.41981616210938,0.2712875008583069,0.11701250076293945,0.05609999969601631
1710940805154849500,33.513849609375,0.2320999950170517,-0.11275000125169754,-0.3959999978542328
1710940805248883000,33.607883056640624,0.09404999762773514,-0.36313748359680176,0.23319999873638153
1710940805342916400,33.701916259765625,-0.042762499302625656,0.3405874967575073,0.3797749876976013
1710940805436949800,33.79594970703125,0.1722874939441681,-0.02969999983906746,-0.11990000307559967
1710940805530983000,33.88998291015625,-0.20281249284744263,-0.21656249463558197,0.0976250022649765
1710940805625016300,33.98401635742187,-0.22481249272823334,0.15482500195503235,-0.1504250019788742
1710940805719049500,34.07804956054687,-0.3128125071525574,-0.07727500051259995,-0.17847499251365662
1710940805813083100,34.172083251953126,-0.3188624978065491,-0.15427500009536743,-0.16513749957084656
1710940805907116300,34.2661162109375,-0.39214998483657837,-0.07603749632835388,-0.10518749803304672
1710940806001149700,34.36014965820313,-0.3909125030040741,-0.010037500411272049,0.10119999945163727
1710940806095183000,34.45418310546875,-0.2626250088214874,-0.1200374960899353,-0.15895000100135803
1710940806189216500,34.548216552734374,-0.1868624985218048,-0.113987497985363,-0.34595000743865967
1710940806283250000,34.64225,-0.05623750016093254,0.0644875019788742,0.7841625213623047
1710940806377283000,34.736282958984376,-0.05623750016093254,0.024062499403953552,-0.05389999970793724
1710940806471316700,34.83031665039063,0.028049999848008156,0.08030000329017639,-0.11990000307559967
1710940806565350000,34.92434985351562,0.11357499659061432,0.04853750020265579,-0.25423750281333923
1710940806659383000,35.01838305664062,0.12223749607801437,0.021724998950958252,-0.3727625012397766
1710940806753416700,35.112416748046876,0.24186250567436218,0.1621125042438507,-0.07961250096559525
1710940806847449900,35.20644995117188,0.30662500858306885,0.12553749978542328,-0.008662499487400055
1710940806941483500,35.3004833984375,0.35186249017715454,0.08524999767541885,0.037675000727176666
1710940807035516700,35.3945166015625,0.3078624904155731,0.1023000031709671,0.08662500232458115
1710940807129549800,35.4885498046875,0.34581249952316284,0.029012499377131462,0.08167500048875809
1710940807223583500,35.58258349609375,0.32615000009536743,-0.22151249647140503,0.14162500202655792
1710940807317616600,35.67661669921875,0.2358125001192093,-0.27761250734329224,0.18191249668598175
1710940807411650000,35.77065014648438,0.18081249296665192,-0.023512499406933784,0.1256749927997589
1710940807505683500,35.86468334960937,0.19552500545978546,0.18053749203681946,-0.14547500014305115
1710940807599716600,35.95871655273437,0.02928750030696392,-0.04427500069141388,-0.08318749815225601
1710940807693750000,36.05275,0.025712499395012856,0.18411250412464142,-0.15289999544620514
1710940807787783400,36.146783447265626,0.0635249987244606,-0.0002749999985098839,-0.15523749589920044
1710940807881816600,36.24081665039063,-0.015812499448657036,-0.17503750324249268,-0.057612501084804535
1710940807975850000,36.33485009765625,-0.0672374963760376,-0.17627499997615814,-0.002612499985843897
1710940808069883400,36.42888330078125,-0.025712499395012856,-0.04427500069141388,0.04138749837875366
1710940808163916800,36.522916748046875,0.05004999786615372,-0.10051249712705612,0.21848750114440918
1710940808257950000,36.616949951171875,0.0012374999932944775,-0.07727500051259995,-0.1321374922990799
1710940808351983000,36.710983154296876,0.1588124930858612,-0.05898749828338623,0.5190625190734863
1710940808446016500,36.8050166015625,0.07699999958276749,0.004537499975413084,0.02186249941587448
1710940808540050000,36.8990498046875,0.12223749607801437,0.04977500066161156,-0.24199999868869781
1710940808634083000,36.9930830078125,0.3053874969482422,0.013062499463558197,-0.08084999769926071
1710940808728116500,37.087116455078124,0.3689124882221222,0.0057749999687075615,-0.1321374922990799
1710940808822150000,37.18114990234375,0.42391249537467957,0.04606249928474426,-0.07837499678134918
1710940808916183000,37.27518310546875,0.44591251015663147,0.14258749783039093,-0.03918749839067459
1710940809010216400,37.36921655273437,0.5179625153541565,0.08524999767541885,-0.005087499972432852
1710940809104249600,37.46324951171875,0.5081999897956848,0.04853750020265579,0.09391249716281891
1710940809198283000,37.55728295898437,0.4641999900341034,0.1060125008225441,0.11962500214576721
1710940809292316200,37.651316162109374,0.3335750102996826,-0.3485625088214874,-0.14423750340938568
1710940809386349600,37.745349609375,0.1270499974489212,-0.29961249232292175,0.05843750014901161
1710940809480382700,37.8393828125,0.01347499992698431,0.01677500084042549,0.2307250052690506
1710940809574416100,37.933416015625,-0.02681249938905239,0.014299999922513962,0.10615000128746033
1710940809668449500,38.02744946289062,0.12099999934434891,0.1695374995470047,-0.10518749803304672
1710940809762482700,38.12148266601562,-0.01347499992698431,-0.006462499964982271,0.010862499475479126
1710940809856516000,38.21551611328125,0.05004999786615372,0.2891624867916107,-0.17613749206066132
1710940809950549200,38.30954931640625,-0.06599999964237213,-0.10422500222921371,-0.08195000141859055
1710940810044582700,38.40358276367188,-0.12099999934434891,-0.10422500222921371,-0.050187498331069946
1710940810138616000,38.49761596679687,-0.2125750035047531,-0.0015124999918043613,-0.035612501204013824
1710940810232649200,38.59164916992187,-0.1648624986410141,0.022824998944997787,-0.012374999932944775
1710940810326682400,38.68568237304687,-0.1588124930858612,0.011824999935925007,-0.17723749577999115
1710940810420715800,38.7797158203125,-0.07576250284910202,0.08401250094175339,-0.012374999932944775
1710940810514749000,38.8737490234375,-0.04647500067949295,-0.10532499849796295,0.35420000553131104
1710940810608782300,38.9677822265625,-0.14409999549388885,-0.01746249943971634,0.20514999330043793
1710940810702815500,39.0618154296875,-0.16376249492168427,-0.1555124968290329,-0.035612501204013824
1710940810796849000,39.15584887695312,-0.04399999976158142,0.05101250112056732,0.04619999974966049
1710940810890882000,39.24988208007812,0.11123749613761902,0.0057749999687075615,-0.16871249675750732
1710940810984915500,39.34391552734375,0.15633749961853027,0.05953750014305115,-0.17971250414848328
1710940811078948600,39.437948486328125,0.18205000460147858,0.16458749771118164,-0.0013749999925494194
1710940811172982000,39.53198193359375,0.20157499611377716,0.15729999542236328,0.04262499883770943
1710940811267015200,39.62601513671875,0.29809999465942383,0.1060125008225441,0.15015000104904175
1710940811361048300,39.72004833984375,0.27857500314712524,0.04606249928474426,0.32243749499320984
1710940811455082000,39.81408203125,0.25905001163482666,-0.09446249902248383,0.30896249413490295
1710940811549115100,39.908115234375,0.037812501192092896,-0.37290000915527344,0.27348750829696655
1710940811643148300,40.002148193359375,-0.16733749210834503,0.21230000257492065,0.1611499935388565
1710940811737181400,40.096181396484376,-0.08923749625682831,-0.021037500351667404,-0.14313749969005585
1710940811831214800,40.19021484375,-0.28338751196861267,-0.02722499892115593,-0.06737499684095383
1710940811925248000,40.284248046875,-0.3078624904155731,0.0668250024318695,-0.09913749992847443
1710940812019281400,40.37828149414062,-0.2993375062942505,0.08882500231266022,-0.025849999859929085
1710940812113314600,40.472314453125,-0.28833749890327454,-0.10298749804496765,-0.09790000319480896
1710940812207347700,40.56634765625,-0.3763374984264374,-0.06751249730587006,-0.005087499972432852
1710940812301381000,40.660381103515626,-0.49114999175071716,-0.14932499825954437,0.008387500420212746
