record_version,record_number,record_timestamp,sample_index,ax,ay,az,gx,gy,gz,aux_flags
2,0,1757714266109,0,971,-132,197,-210,560,-210,7
2,0,1757714266109,1,971,-132,197,-210,560,-210,7
2,0,1757714266109,2,971,-132,197,-210,490,-210,7
2,0,1757714266109,3,971,-132,196,-210,490,-210,7
2,0,1757714266109,4,971,-132,196,-280,490,-140,7
2,0,1757714266109,5,971,-132,197,-280,490,-210,7
2,0,1757714266109,6,971,-132,197,-280,490,-70,7
2,0,1757714266109,7,971,-132,197,-210,560,-210,7
2,0,1757714266109,8,971,-132,196,-280,420,-70,7
2,0,1757714266109,9,971,-132,196,-210,560,-210,7
2,1,1757714266275,0,971,-132,196,-280,490,-140,31
2,1,1757714266275,1,971,-132,196,-350,420,-70,31
2,1,1757714266275,2,971,-132,196,-210,630,-280,31
2,1,1757714266275,3,971,-132,197,-280,420,-140,31
2,1,1757714266275,4,971,-132,196,-280,560,-210,31
2,1,1757714266275,5,971,-132,196,-280,560,-210,31
2,1,1757714266275,6,971,-132,197,-210,630,-280,31
2,1,1757714266275,7,971,-132,197,-280,490,-70,31
2,1,1757714266275,8,971,-132,197,-280,490,-70,31
2,1,1757714266275,9,971,-132,197,-210,490,-140,31
2,2,1757714266442,0,971,-132,196,-280,490,-140,31
2,2,1757714266442,1,971,-132,196,-280,490,-140,31
2,2,1757714266442,2,971,-132,196,-280,490,-140,31
2,2,1757714266442,3,971,-132,196,-280,490,-140,31
2,2,1757714266442,4,971,-132,196,-280,490,-140,31
2,2,1757714266442,5,971,-132,196,-280,490,-140,31
2,2,1757714266442,6,971,-132,196,-210,560,-210,31
2,2,1757714266442,7,971,-132,196,-280,420,-140,31
2,2,1757714266442,8,971,-132,196,-210,560,-210,31
2,2,1757714266442,9,971,-132,196,-280,490,-140,31
2,3,1757714266609,0,971,-132,196,-280,490,-210,31
2,3,1757714266609,1,971,-132,196,-280,490,-210,31
2,3,1757714266609,2,971,-132,196,-280,420,-140,31
2,3,1757714266609,3,971,-132,196,-210,490,-210,31
2,3,1757714266609,4,971,-132,196,-210,490,-140,31
2,3,1757714266609,5,971,-132,196,-280,490,-140,31
2,3,1757714266609,6,971,-132,196,-280,490,-210,31
2,3,1757714266609,7,971,-132,196,-210,560,-210,31
2,3,1757714266609,8,971,-132,196,-280,420,-140,31
2,3,1757714266609,9,971,-132,196,-210,560,-280,31
2,4,1757714266775,0,971,-132,196,-210,560,-280,31
2,4,1757714266775,1,971,-132,196,-280,490,-140,31
2,4,1757714266775,2,971,-132,196,-280,490,-140,31
2,4,1757714266775,3,971,-132,196,-210,630,-280,31
2,4,1757714266775,4,971,-132,196,-350,420,0,31
2,4,1757714266775,5,971,-132,196,-350,420,0,31
2,4,1757714266775,6,971,-132,196,-350,420,0,31
2,4,1757714266775,7,971,-132,196,-210,630,-280,31
2,4,1757714266775,8,971,-132,196,-280,490,-140,31
2,4,1757714266775,9,971,-132,196,-280,490,-140,31
2,5,1757714266942,0,971,-132,196,-350,350,0,31
2,5,1757714266942,1,971,-132,196,-140,630,-280,31
2,5,1757714266942,2,971,-132,196,-350,420,-70,31
2,5,1757714266942,3,971,-132,196,-210,560,-210,31
2,5,1757714266942,4,971,-132,196,-280,490,-210,31
2,5,1757714266942,5,971,-132,196,-280,490,-140,31
2,5,1757714266942,6,971,-132,196,-210,560,-210,31
2,5,1757714266942,7,971,-132,196,-280,420,-140,31
2,5,1757714266942,8,971,-132,196,-210,560,-210,31
2,5,1757714266942,9,971,-132,196,-280,490,-140,31
2,5,1757714266942,0,971,-132,196,-350,350,0,31
2,5,1757714266942,1,971,-132,196,-140,630,-280,31
2,5,1757714266942,2,971,-132,196,-350,420,-70,31
2,5,1757714266942,3,971,-132,196,-210,560,-210,31
2,5,1757714266942,4,971,-132,196,-280,490,-210,31
2,5,1757714266942,5,971,-132,196,-280,490,-140,31
2,5,1757714266942,6,971,-132,196,-210,560,-210,31
2,5,1757714266942,7,971,-132,196,-280,420,-140,31
2,5,1757714266942,8,971,-132,196,-210,560,-210,31
2,5,1757714266942,9,971,-132,196,-280,490,-140,31
2,6,1757714267109,0,971,-132,196,-210,560,-210,31
2,6,1757714267109,1,971,-132,196,-210,560,-210,31
2,6,1757714267109,2,971,-132,196,-280,490,-140,31
2,6,1757714267109,3,971,-132,196,-280,490,-140,31
2,6,1757714267109,4,971,-132,196,-280,420,-70,31
2,6,1757714267109,5,971,-132,196,-280,420,-70,31
2,6,1757714267109,6,971,-132,196,-210,560,-210,31
2,6,1757714267109,7,971,-132,196,-210,560,-210,31
2,6,1757714267109,8,971,-132,196,-140,630,-280,31
2,6,1757714267109,9,971,-132,196,-280,420,-70,31
2,7,1757714267275,0,971,-132,196,-280,490,-210,31
2,7,1757714267275,1,971,-132,196,-210,560,-210,31
2,7,1757714267275,2,971,-132,196,-350,350,0,31
2,7,1757714267275,3,971,-132,196,-140,630,-350,31
2,7,1757714267275,4,971,-132,196,-350,420,0,31
2,7,1757714267275,5,971,-132,196,-210,560,-210,31
2,7,1757714267275,6,971,-132,196,-280,490,-140,31
2,7,1757714267275,7,971,-132,196,-280,490,-140,31
2,7,1757714267275,8,971,-132,196,-210,560,-210,31
2,7,1757714267275,9,971,-132,196,-280,420,-140,31
2,8,1757714267442,0,971,-132,196,-210,490,-210,31
2,8,1757714267442,1,971,-132,196,-280,490,-140,31
2,8,1757714267442,2,971,-132,196,-280,490,-140,31
2,8,1757714267442,3,971,-132,196,-210,560,-210,31
2,8,1757714267442,4,971,-132,196,-280,420,-140,31
2,8,1757714267442,5,971,-132,196,-210,560,-140,31
2,8,1757714267442,6,971,-132,196,-280,490,-140,31
2,8,1757714267442,7,971,-132,196,-280,490,-140,31
2,8,1757714267442,8,971,-132,196,-210,560,-210,31
2,8,1757714267442,9,971,-132,196,-350,420,-70,31
2,9,1757714267609,0,971,-132,196,-140,630,-280,31
2,9,1757714267609,1,971,-132,196,-280,420,0,31
2,9,1757714267609,2,971,-132,196,-210,630,-280,31
2,9,1757714267609,3,971,-132,196,-210,490,-210,31
2,9,1757714267609,4,971,-132,196,-280,420,-140,31
2,9,1757714267609,5,971,-132,196,-210,630,-280,31
2,9,1757714267609,6,971,-132,196,-350,350,0,31
2,9,1757714267609,7,971,-132,196,-210,630,-280,31
2,9,1757714267609,8,971,-132,196,-350,420,-70,31
2,9,1757714267609,9,971,-132,196,-210,560,-210,31
2,10,1757714267775,0,971,-132,196,-280,490,-140,31
2,10,1757714267775,1,971,-132,196,-280,490,-210,31
2,10,1757714267775,2,971,-132,196,-210,560,-210,31
2,10,1757714267775,3,971,-132,196,-210,560,-210,31
2,10,1757714267775,4,971,-132,196,-210,560,-210,31
2,10,1757714267775,5,971,-132,196,-210,490,-140,31
2,10,1757714267775,6,971,-132,196,-280,490,-140,31
2,10,1757714267775,7,971,-132,196,-280,490,-210,31
2,10,1757714267775,8,971,-132,196,-280,490,-140,31
2,10,1757714267775,9,971,-132,196,-210,560,-210,31
2,11,1757714267942,0,971,-132,196,-280,420,-140,31
2,11,1757714267942,1,971,-132,196,-210,560,-280,31
2,11,1757714267942,2,971,-132,196,-350,420,-70,31
2,11,1757714267942,3,971,-132,196,-210,560,-210,31
2,11,1757714267942,4,971,-132,196,-280,490,-210,31
2,11,1757714267942,5,971,-132,196,-280,420,-70,31
2,11,1757714267942,6,971,-132,196,-210,560,-280,31
2,11,1757714267942,7,971,-132,196,-280,420,-70,31
2,11,1757714267942,8,971,-132,196,-210,560,-210,31
2,11,1757714267942,9,971,-132,196,-210,490,-210,31
2,12,1757714268109,0,971,-132,196,-280,490,-140,31
2,12,1757714268109,1,971,-132,196,-280,490,-210,31
2,12,1757714268109,2,971,-132,196,-280,490,-210,31
2,12,1757714268109,3,971,-132,196,-280,560,-210,31
2,12,1757714268109,4,971,-132,196,-280,560,-210,31
2,12,1757714268109,5,971,-132,196,-210,560,-280,31
2,12,1757714268109,6,971,-132,196,-210,560,-280,31
2,12,1757714268109,7,971,-132,196,-280,420,-70,31
2,12,1757714268109,8,971,-132,196,-210,560,-210,31
2,12,1757714268109,9,971,-132,196,-280,490,-140,31
2,13,1757714268275,0,971,-132,196,-280,490,-140,31
2,13,1757714268275,1,971,-132,196,-210,490,-210,31
2,13,1757714268275,2,971,-132,196,-280,420,-70,31
2,13,1757714268275,3,971,-132,196,-210,560,-210,31
2,13,1757714268275,4,971,-132,196,-280,490,-140,31
2,13,1757714268275,5,971,-132,196,-280,490,-210,31
2,13,1757714268275,6,971,-132,196,-280,490,-140,31
2,13,1757714268275,7,971,-132,196,-280,490,-140,31
2,13,1757714268275,8,971,-132,196,-280,490,-140,31
2,13,1757714268275,9,971,-132,196,-280,490,-140,31
2,14,1757714268442,0,971,-132,196,-280,490,-140,31
2,14,1757714268442,1,971,-132,196,-210,560,-210,31
2,14,1757714268442,2,971,-132,196,-280,420,-70,31
2,14,1757714268442,3,971,-132,196,-140,630,-350,31
2,14,1757714268442,4,971,-132,196,-350,350,70,31
2,14,1757714268442,5,971,-132,196,-140,630,-350,31
2,14,1757714268442,6,971,-132,196,-350,420,-70,31
2,14,1757714268442,7,971,-132,196,-280,490,-210,31
2,14,1757714268442,8,971,-132,196,-210,560,-210,31
2,14,1757714268442,9,971,-132,196,-280,490,-140,31
2,16,1757714268775,0,971,-132,196,-770,-280,840,31
2,16,1757714268775,1,971,-132,196,420,1680,-1610,31
2,16,1757714268775,2,971,-132,196,-980,-700,1190,31
2,16,1757714268775,3,971,-132,196,-980,-700,1190,31
2,16,1757714268775,4,971,-132,196,-560,70,420,31
2,16,1757714268775,5,971,-132,196,-560,70,420,31
2,16,1757714268775,6,971,-132,196,-280,560,-140,31
2,16,1757714268775,7,971,-132,196,-210,560,-280,31
2,16,1757714268775,8,971,-132,196,-560,70,490,31
2,16,1757714268775,9,971,-132,196,210,1330,-1050,31
2,16,1757714268775,0,971,-132,196,-770,-280,840,31
2,16,1757714268775,1,971,-132,196,420,1680,-1610,31
2,16,1757714268775,2,971,-132,196,-980,-700,1190,31
2,16,1757714268775,3,971,-132,196,-980,-700,1190,31
2,16,1757714268775,4,971,-132,196,-560,70,420,31
2,16,1757714268775,5,971,-132,196,-560,70,420,31
2,16,1757714268775,6,971,-132,196,-280,560,-140,31
2,16,1757714268775,7,971,-132,196,-210,560,-280,31
2,16,1757714268775,8,971,-132,196,-560,70,490,31
2,16,1757714268775,9,971,-132,196,210,1330,-1050,31
2,17,1757714268942,0,971,-132,196,-770,-280,770,31
2,17,1757714268942,1,971,-132,196,70,1050,-840,31
2,17,1757714268942,2,971,-132,196,-420,280,70,31
2,17,1757714268942,3,971,-132,196,-280,490,-70,31
2,17,1757714268942,4,971,-132,196,-210,700,-280,31
2,17,1757714268942,5,971,-132,196,-280,420,-70,31
2,17,1757714268942,6,971,-132,196,-280,490,-140,31
2,17,1757714268942,7,971,-132,196,-210,630,-280,31
2,17,1757714268942,8,971,-132,196,-280,420,-70,31
2,17,1757714268942,9,971,-132,196,-210,560,-210,31
2,18,1757714269109,0,971,-132,196,-210,560,-210,31
2,18,1757714269109,1,971,-132,196,-350,420,0,31
2,18,1757714269109,2,971,-132,196,-210,630,-280,31
2,18,1757714269109,3,971,-132,196,-350,350,0,31
2,18,1757714269109,4,971,-132,196,-210,560,-210,31
2,18,1757714269109,5,971,-132,196,-280,490,-140,31
2,18,1757714269109,6,971,-132,196,-280,490,-140,31
2,18,1757714269109,7,971,-132,196,-280,490,-140,31
2,18,1757714269109,8,971,-132,196,-210,490,-140,31
2,18,1757714269109,9,971,-132,196,-210,490,-140,31
2,19,1757714269275,0,971,-132,196,-210,560,-210,31
2,19,1757714269275,1,971,-132,196,-280,420,-70,31
2,19,1757714269275,2,971,-132,196,-210,560,-210,31
2,19,1757714269275,3,971,-132,196,-210,490,-210,31
2,19,1757714269275,4,971,-132,196,-280,490,-70,31
2,19,1757714269275,5,971,-132,196,-140,630,-280,31
2,19,1757714269275,6,971,-132,196,-350,350,0,31
2,19,1757714269275,7,971,-132,196,-210,560,-210,31
2,19,1757714269275,8,971,-132,196,-210,560,-210,31
2,19,1757714269275,9,971,-132,196,-350,420,-70,31
2,20,1757714269442,0,971,-132,196,-210,560,-280,31
2,20,1757714269442,1,971,-132,196,-280,490,-140,31
2,20,1757714269442,2,971,-132,196,-210,490,-210,31
2,20,1757714269442,3,971,-132,196,-280,490,-140,31
2,20,1757714269442,4,971,-132,196,-280,490,-210,31
2,20,1757714269442,5,971,-132,196,-280,490,-140,31
2,20,1757714269442,6,971,-132,196,-210,490,-140,31
2,20,1757714269442,7,971,-132,196,-210,560,-210,31
2,20,1757714269442,8,971,-132,196,-210,560,-210,31
2,20,1757714269442,9,971,-132,196,-210,560,-210,31
2,22,1757714269775,0,971,-132,196,-210,630,-350,31
2,22,1757714269775,1,971,-132,196,-280,420,-70,31
2,22,1757714269775,2,971,-132,196,-210,560,-210,31
2,22,1757714269775,3,971,-132,196,-280,490,-140,31
2,22,1757714269775,4,971,-132,196,-280,490,-140,31
2,22,1757714269775,5,971,-132,196,-280,560,-140,31
2,22,1757714269775,6,971,-132,196,-210,560,-210,31
2,22,1757714269775,7,971,-132,196,-350,420,-70,31
2,22,1757714269775,8,971,-132,196,-140,630,-280,31
2,22,1757714269775,9,971,-132,196,-280,420,-70,31
2,23,1757714269942,0,971,-132,196,-210,560,-280,31
2,23,1757714269942,1,971,-132,196,-280,490,-140,31
2,23,1757714269942,2,971,-132,196,-280,490,-210,31
2,23,1757714269942,3,971,-132,196,-280,560,-140,31
2,23,1757714269942,4,971,-132,196,-210,560,-210,31
2,23,1757714269942,5,971,-132,196,-280,420,0,31
2,23,1757714269942,6,971,-132,196,-140,630,-350,31
2,23,1757714269942,7,971,-132,196,-350,350,0,31
2,23,1757714269942,8,971,-132,196,-140,630,-350,31
2,23,1757714269942,9,971,-132,196,-280,350,0,31
2,24,1757714270109,0,971,-132,196,-210,560,-210,31
2,24,1757714270109,1,971,-132,196,-280,490,-140,31
2,24,1757714270109,2,971,-132,196,-280,490,-140,31
2,24,1757714270109,3,971,-132,196,-210,560,-210,31
2,24,1757714270109,4,971,-132,196,-280,490,-140,31
2,24,1757714270109,5,971,-132,196,-280,490,-140,31
2,24,1757714270109,6,971,-132,196,-210,560,-280,31
2,24,1757714270109,7,971,-132,196,-350,350,0,31
2,24,1757714270109,8,971,-132,196,-140,700,-350,31
2,24,1757714270109,9,971,-132,196,-350,350,70,31
2,25,1757714270275,0,971,-132,196,-210,630,-280,31
2,25,1757714270275,1,971,-132,196,-280,560,-210,31
2,25,1757714270275,2,971,-132,196,-280,420,-70,31
2,25,1757714270275,3,971,-132,196,-210,560,-280,31
2,25,1757714270275,4,971,-132,196,-280,420,-140,31
2,25,1757714270275,5,971,-132,196,-280,490,-140,31
2,25,1757714270275,6,971,-132,196,-210,560,-210,31
2,25,1757714270275,7,971,-132,196,-280,420,0,31
2,25,1757714270275,8,971,-132,196,-210,630,-280,31
2,25,1757714270275,9,971,-132,196,-490,420,140,31
2,26,1757714270442,0,971,-132,196,70,910,-490,31
2,26,1757714270442,1,971,-132,196,-560,-280,210,31
2,26,1757714270442,2,971,-132,196,70,1330,-840,31
2,26,1757714270442,3,971,-132,196,-630,0,560,31
2,26,1757714270442,4,971,-132,196,0,840,-630,31
2,26,1757714270442,5,971,-132,196,-350,280,70,31
2,26,1757714270442,6,971,-132,196,-140,630,-420,31
2,26,1757714270442,7,971,-132,196,-350,420,0,31
2,26,1757714270442,8,971,-132,196,-350,420,0,31
2,26,1757714270442,9,971,-132,196,-350,420,70,31
2,27,1757714270609,0,971,-132,196,-350,420,70,31
2,27,1757714270609,1,971,-132,196,-350,350,70,31
2,27,1757714270609,2,971,-132,196,-350,350,70,31
2,27,1757714270609,3,971,-132,196,-210,560,-210,31
2,27,1757714270609,4,971,-132,196,-210,560,-210,31
2,27,1757714270609,5,971,-132,196,-350,420,-70,31
2,27,1757714270609,6,971,-132,196,-210,630,-280,31
2,27,1757714270609,7,971,-132,196,-280,420,-70,31
2,27,1757714270609,8,971,-132,196,-210,560,-210,31
2,27,1757714270609,9,971,-132,196,-280,560,-140,31
2,28,1757714270775,0,971,-132,196,-210,490,-140,31
2,28,1757714270775,1,971,-132,196,-210,490,-210,31
2,28,1757714270775,2,971,-132,196,-210,560,-210,31
2,28,1757714270775,3,971,-132,196,-280,490,-70,31
2,28,1757714270775,4,971,-132,196,-210,560,-280,31
2,28,1757714270775,5,971,-132,196,-280,420,-70,31
2,28,1757714270775,6,971,-132,196,-280,560,-210,31
2,28,1757714270775,7,971,-132,196,-350,490,-140,31
2,28,1757714270775,8,971,-132,196,-350,490,-140,31
2,28,1757714270775,9,971,-132,196,-280,490,-140,31
2,29,1757714270942,0,971,-132,196,-280,490,-140,31
2,29,1757714270942,1,971,-132,196,-210,560,-210,31
2,29,1757714270942,2,971,-132,196,-210,560,-210,31
2,29,1757714270942,3,971,-132,196,-280,420,-70,31
2,29,1757714270942,4,971,-132,196,-210,630,-210,31
2,29,1757714270942,5,971,-132,196,-350,420,-70,31
2,29,1757714270942,6,971,-132,196,-210,560,-140,31
2,29,1757714270942,7,971,-132,196,-280,490,-210,31
2,29,1757714270942,8,971,-132,196,-210,490,-140,31
2,29,1757714270942,9,971,-132,196,-280,490,-210,31
2,30,1757714271109,0,971,-132,196,-210,490,-140,31
2,30,1757714271109,1,971,-132,196,-280,490,-140,31
2,30,1757714271109,2,971,-132,196,-280,560,-140,31
2,30,1757714271109,3,971,-132,196,-280,490,-140,31
2,30,1757714271109,4,971,-132,196,-280,560,-140,31
2,30,1757714271109,5,971,-132,196,-280,560,-140,31
2,30,1757714271109,6,971,-132,196,-280,490,-210,31
2,30,1757714271109,7,971,-132,196,-280,490,-140,31
2,30,1757714271109,8,971,-132,196,-280,490,-210,31
2,30,1757714271109,9,971,-132,196,-210,560,-140,31
2,30,1757714271109,0,971,-132,196,-210,490,-140,31
2,30,1757714271109,1,971,-132,196,-280,490,-140,31
2,30,1757714271109,2,971,-132,196,-280,560,-140,31
2,30,1757714271109,3,971,-132,196,-280,490,-140,31
2,30,1757714271109,4,971,-132,196,-280,560,-140,31
2,30,1757714271109,5,971,-132,196,-280,560,-140,31
2,30,1757714271109,6,971,-132,196,-280,490,-210,31
2,30,1757714271109,7,971,-132,196,-280,490,-140,31
2,30,1757714271109,8,971,-132,196,-280,490,-210,31
2,30,1757714271109,9,971,-132,196,-210,560,-140,31
2,32,1757714271442,0,971,-132,196,-280,420,-70,31
2,32,1757714271442,1,971,-132,196,-140,630,-350,31
2,32,1757714271442,2,971,-132,196,-350,420,0,31
2,32,1757714271442,3,971,-132,196,-210,630,-280,31
2,32,1757714271442,4,971,-132,196,-210,420,-140,31
2,32,1757714271442,5,971,-132,196,-210,490,-210,31
2,32,1757714271442,6,971,-132,196,-210,560,-210,31
2,32,1757714271442,7,971,-132,196,-280,420,-70,31
2,32,1757714271442,8,971,-132,196,-280,420,-70,31
2,32,1757714271442,9,971,-132,196,-350,350,0,31
2,32,1757714271442,0,971,-132,196,-280,420,-70,31
2,32,1757714271442,1,971,-132,196,-140,630,-350,31
2,32,1757714271442,2,971,-132,196,-350,420,0,31
2,32,1757714271442,3,971,-132,196,-210,630,-280,31
2,32,1757714271442,4,971,-132,196,-210,420,-140,31
2,32,1757714271442,5,971,-132,196,-210,490,-210,31
2,32,1757714271442,6,971,-132,196,-210,560,-210,31
2,32,1757714271442,7,971,-132,196,-280,420,-70,31
2,32,1757714271442,8,971,-132,196,-280,420,-70,31
2,32,1757714271442,9,971,-132,196,-350,350,0,31
2,34,1757714271775,0,971,-132,196,-280,420,-70,31
2,34,1757714271775,1,971,-132,196,-140,560,-280,31
2,34,1757714271775,2,971,-132,196,-280,420,-70,31
2,34,1757714271775,3,971,-132,196,-210,630,-280,31
2,34,1757714271775,4,971,-132,196,-280,420,-70,31
2,34,1757714271775,5,971,-132,196,-210,490,-210,31
2,34,1757714271775,6,971,-132,196,-280,490,-140,31
2,34,1757714271775,7,971,-132,196,-280,490,-140,31
2,34,1757714271775,8,971,-132,196,-210,560,-210,31
2,34,1757714271775,9,971,-132,196,-210,490,-210,31
2,35,1757714271942,0,971,-132,196,-280,420,-140,31
2,35,1757714271942,1,971,-132,196,-210,560,-280,31
2,35,1757714271942,2,971,-132,196,-210,560,-280,31
2,35,1757714271942,3,971,-132,196,-210,490,-210,31
2,35,1757714271942,4,971,-132,196,-210,490,-210,31
2,35,1757714271942,5,971,-132,196,-210,560,-210,31
2,35,1757714271942,6,971,-132,196,-210,420,-210,31
2,35,1757714271942,7,971,-132,196,-210,490,-210,31
2,35,1757714271942,8,971,-132,196,-210,490,-280,31
2,35,1757714271942,9,971,-132,196,-280,420,-140,31
2,36,1757714272109,0,971,-132,196,-140,560,-280,31
2,36,1757714272109,1,971,-132,196,-280,560,-210,31
2,36,1757714272109,2,971,-132,196,-280,350,0,31
2,36,1757714272109,3,971,-132,196,-70,840,-560,31
2,36,1757714272109,4,971,-132,196,-420,140,280,31
2,36,1757714272109,5,971,-132,196,-70,840,-560,31
2,36,1757714272109,6,971,-132,196,-420,210,210,31
2,36,1757714272109,7,971,-132,196,-140,700,-420,31
2,36,1757714272109,8,971,-132,196,-350,420,0,31
2,36,1757714272109,9,971,-132,196,-280,560,-210,31
2,37,1757714272275,0,971,-132,196,-280,560,-140,31
2,37,1757714272275,1,971,-132,196,-280,490,-70,31
2,37,1757714272275,2,971,-132,196,-140,630,-280,31
2,37,1757714272275,3,971,-132,196,-140,630,-280,31
2,37,1757714272275,4,971,-132,196,-210,630,-280,31
2,37,1757714272275,5,971,-132,196,-210,630,-280,31
2,37,1757714272275,6,971,-132,196,-280,420,-70,31
2,37,1757714272275,7,971,-132,196,-280,420,-70,31
2,37,1757714272275,8,971,-132,196,-280,420,-70,31
2,37,1757714272275,9,971,-132,196,-210,630,-280,31
2,38,1757714272442,0,971,-132,196,-350,420,0,31
2,38,1757714272442,1,971,-132,196,-350,420,0,31
2,38,1757714272442,2,971,-132,196,-350,420,-70,31
2,38,1757714272442,3,971,-132,196,-210,560,-210,31
2,38,1757714272442,4,971,-132,196,-210,490,-140,31
2,38,1757714272442,5,971,-132,196,-280,490,-70,31
2,38,1757714272442,6,971,-132,196,-210,630,-210,31
2,38,1757714272442,7,971,-132,196,-280,420,-70,31
2,38,1757714272442,8,971,-132,196,-210,630,-280,31
2,38,1757714272442,9,971,-132,196,-280,490,-140,31
2,39,1757714272609,0,971,-132,196,-280,490,-140,31
2,39,1757714272609,1,971,-132,196,-210,490,-210,31
2,39,1757714272609,2,971,-132,196,-210,560,-140,31
2,39,1757714272609,3,971,-132,196,-280,490,-140,31
2,39,1757714272609,4,971,-132,196,-210,560,-210,31
2,39,1757714272609,5,971,-132,196,-210,490,-210,31
2,39,1757714272609,6,971,-132,196,-280,420,-70,31
2,39,1757714272609,7,971,-132,196,-210,630,-280,31
2,39,1757714272609,8,971,-132,196,-280,420,-70,31
2,39,1757714272609,9,971,-132,196,-210,560,-210,31
2,40,1757714272775,0,971,-132,196,-280,490,-140,31
2,40,1757714272775,1,971,-132,196,-280,490,-140,31
2,40,1757714272775,2,971,-132,196,-210,560,-210,31
2,40,1757714272775,3,971,-132,196,-350,420,-70,31
2,40,1757714272775,4,971,-132,196,-140,630,-350,31
2,40,1757714272775,5,971,-132,196,-280,420,0,31
2,40,1757714272775,6,971,-132,196,-210,560,-210,31
2,40,1757714272775,7,971,-132,196,-210,490,-140,31
2,40,1757714272775,8,971,-132,196,-280,490,-140,31
2,40,1757714272775,9,971,-132,196,-210,490,-140,31
2,40,1757714272775,0,971,-132,196,-280,490,-140,31
2,40,1757714272775,1,971,-132,196,-280,490,-140,31
2,40,1757714272775,2,971,-132,196,-210,560,-210,31
2,40,1757714272775,3,971,-132,196,-350,420,-70,31
2,40,1757714272775,4,971,-132,196,-140,630,-350,31
2,40,1757714272775,5,971,-132,196,-280,420,0,31
2,40,1757714272775,6,971,-132,196,-210,560,-210,31
2,40,1757714272775,7,971,-132,196,-210,490,-140,31
2,40,1757714272775,8,971,-132,196,-280,490,-140,31
2,40,1757714272775,9,971,-132,196,-210,490,-140,31
2,41,1757714272942,0,971,-132,196,-210,560,-210,31
2,41,1757714272942,1,971,-132,196,-280,420,-70,31
2,41,1757714272942,2,971,-132,196,-210,560,-210,31
2,41,1757714272942,3,971,-132,196,-280,490,-140,31
2,41,1757714272942,4,971,-132,196,-280,560,-210,31
2,41,1757714272942,5,971,-132,196,-280,560,-210,31
2,41,1757714272942,6,971,-132,196,-280,490,-140,31
2,41,1757714272942,7,971,-132,196,-280,490,-140,31
2,41,1757714272942,8,971,-132,196,-210,490,-210,31
2,41,1757714272942,9,971,-132,196,-210,490,-210,31
2,42,1757714273109,0,971,-132,196,-210,490,-210,31
2,42,1757714273109,1,971,-132,196,-210,490,-140,31
2,42,1757714273109,2,971,-132,196,-280,490,-70,31
2,42,1757714273109,3,971,-132,196,-210,560,-280,31
2,42,1757714273109,4,971,-132,196,-280,420,-70,31
2,42,1757714273109,5,971,-132,196,-280,560,-210,31
2,42,1757714273109,6,971,-132,196,-210,490,-140,31
2,42,1757714273109,7,971,-132,196,-280,490,-140,31
2,42,1757714273109,8,971,-132,196,-210,560,-210,31
2,42,1757714273109,9,971,-132,196,-280,490,-70,31
2,43,1757714273275,0,971,-132,196,-280,490,-210,31
2,43,1757714273275,1,971,-132,196,-210,630,-280,31
2,43,1757714273275,2,971,-132,196,-280,420,-70,31
2,43,1757714273275,3,971,-132,196,-280,420,-70,31
2,43,1757714273275,4,971,-132,196,-350,420,-70,31
2,43,1757714273275,5,971,-132,196,-350,420,-70,31
2,43,1757714273275,6,971,-132,196,-210,490,-140,31
2,43,1757714273275,7,971,-132,196,-210,490,-140,31
2,43,1757714273275,8,971,-132,196,-210,490,-140,31
2,43,1757714273275,9,971,-132,196,-210,490,-140,31
2,45,1757714273609,0,971,-132,196,-280,490,-210,31
2,45,1757714273609,1,971,-132,196,-280,490,-140,31
2,45,1757714273609,2,971,-132,196,-210,560,-210,31
2,45,1757714273609,3,971,-132,196,-280,490,-140,31
2,45,1757714273609,4,971,-132,196,-280,490,-140,31
2,45,1757714273609,5,971,-132,196,-140,630,-350,31
2,45,1757714273609,6,971,-132,196,-420,420,70,31
2,45,1757714273609,7,971,-132,196,-140,700,-350,31
2,45,1757714273609,8,971,-132,196,-280,420,-70,31
2,45,1757714273609,9,971,-132,196,-280,490,-140,31
2,46,1757714273775,0,971,-132,196,-210,630,-280,31
2,46,1757714273775,1,971,-132,196,-350,350,0,31
2,46,1757714273775,2,971,-132,196,-140,630,-280,31
2,46,1757714273775,3,971,-132,196,-280,420,-140,31
2,46,1757714273775,4,971,-132,196,-280,490,-140,31
2,46,1757714273775,5,971,-132,196,-210,630,-280,31
2,46,1757714273775,6,971,-132,196,-280,350,0,31
2,46,1757714273775,7,971,-132,196,-210,630,-280,31
2,46,1757714273775,8,971,-132,196,-280,420,-70,31
2,46,1757714273775,9,971,-132,196,-280,560,-210,31
2,47,1757714273942,0,971,-132,196,-210,490,-210,31
2,47,1757714273942,1,971,-132,196,-350,420,-70,31
2,47,1757714273942,2,971,-132,196,-210,630,-280,31
2,47,1757714273942,3,971,-132,196,-350,420,0,31
2,47,1757714273942,4,971,-132,196,-210,490,-280,31
2,47,1757714273942,5,971,-132,196,-210,490,-140,31
2,47,1757714273942,6,971,-132,196,-210,490,-140,31
2,47,1757714273942,7,971,-132,196,-210,490,-210,31
2,47,1757714273942,8,971,-132,196,-280,490,-140,31
2,47,1757714273942,9,971,-132,196,-210,560,-210,31
2,48,1757714274109,0,971,-132,196,-280,490,-140,31
2,48,1757714274109,1,971,-132,196,-280,490,-140,31
2,48,1757714274109,2,971,-132,196,-280,490,-140,31
2,48,1757714274109,3,971,-132,196,-280,490,-140,31
2,48,1757714274109,4,971,-132,196,-210,560,-210,31
2,48,1757714274109,5,971,-132,196,-280,420,-210,31
2,48,1757714274109,6,971,-132,196,-280,490,-140,31
2,48,1757714274109,7,971,-132,196,-210,560,-210,31
2,48,1757714274109,8,971,-132,196,-280,490,-70,31
2,48,1757714274109,9,971,-132,196,-210,560,-210,31
2,49,1757714274275,0,971,-132,196,-210,490,-140,31
2,49,1757714274275,1,971,-132,196,-280,560,-210,31
2,49,1757714274275,2,971,-132,196,-280,490,-140,31
2,49,1757714274275,3,971,-132,196,-210,560,-280,31
2,49,1757714274275,4,971,-132,196,-280,420,-70,31
2,49,1757714274275,5,971,-132,196,-210,560,-280,31
2,49,1757714274275,6,971,-132,196,-210,560,-280,31
2,49,1757714274275,7,971,-132,196,-280,560,-140,31
2,49,1757714274275,8,971,-132,196,-280,560,-140,31
2,49,1757714274275,9,971,-132,196,-210,490,-70,31
2,50,1757714274442,0,971,-132,196,-210,490,-70,31
2,50,1757714274442,1,971,-132,196,-210,560,-280,31
2,50,1757714274442,2,971,-132,196,-210,560,-280,31
2,50,1757714274442,3,971,-132,196,-210,490,-210,31
2,50,1757714274442,4,971,-132,196,-210,490,-210,31
2,50,1757714274442,5,971,-132,196,-280,490,-140,31
2,50,1757714274442,6,971,-132,196,-210,560,-210,31
2,50,1757714274442,7,971,-132,196,-280,420,-70,31
2,50,1757714274442,8,971,-132,196,-210,560,-210,31
2,50,1757714274442,9,971,-132,196,-280,490,-140,31
2,51,1757714274609,0,971,-132,196,-210,490,-210,31
2,51,1757714274609,1,971,-132,196,-280,490,-140,31
2,51,1757714274609,2,971,-132,196,-280,490,-140,31
2,51,1757714274609,3,971,-132,196,-210,630,-280,31
2,51,1757714274609,4,971,-132,196,-350,420,-70,31
2,51,1757714274609,5,971,-132,196,-210,630,-280,31
2,51,1757714274609,6,971,-132,196,-280,420,-140,31
2,51,1757714274609,7,971,-132,196,-280,560,-140,31
2,51,1757714274609,8,971,-132,196,-210,490,-210,31
2,51,1757714274609,9,971,-132,196,-210,490,-140,31
2,52,1757714274775,0,971,-132,196,-280,490,-210,31
2,52,1757714274775,1,971,-132,196,-280,490,-140,31
2,52,1757714274775,2,971,-132,196,-280,490,-140,31
2,52,1757714274775,3,971,-132,196,-210,490,-210,31
2,52,1757714274775,4,971,-132,196,-280,490,-140,31
2,52,1757714274775,5,971,-132,196,-210,560,-210,31
2,52,1757714274775,6,971,-132,196,-280,490,-70,31
2,52,1757714274775,7,971,-132,196,-210,490,-210,31
2,52,1757714274775,8,971,-132,196,-280,560,-140,31
2,52,1757714274775,9,971,-132,196,-210,490,-210,31
2,53,1757714274942,0,971,-132,196,-210,490,-140,31
2,53,1757714274942,1,971,-132,196,-280,490,-210,31
2,53,1757714274942,2,971,-132,196,-210,490,-140,31
2,53,1757714274942,3,971,-132,196,-280,490,-210,31
2,53,1757714274942,4,971,-132,196,-210,490,-140,31
2,53,1757714274942,5,971,-132,196,-210,490,-140,31
2,53,1757714274942,6,971,-132,196,-280,490,-140,31
2,53,1757714274942,7,971,-132,196,-280,560,-210,31
2,53,1757714274942,8,971,-132,196,-280,420,-140,31
2,53,1757714274942,9,971,-132,196,-210,560,-210,31
2,54,1757714275109,0,971,-132,196,-210,490,-210,31
2,54,1757714275109,1,971,-132,196,-280,490,-70,31
2,54,1757714275109,2,971,-132,196,-210,560,-280,31
2,54,1757714275109,3,971,-132,196,-280,490,-70,31
2,54,1757714275109,4,971,-132,196,-210,560,-210,31
2,54,1757714275109,5,971,-132,196,-210,560,-140,31
2,54,1757714275109,6,971,-132,196,-280,490,-140,31
2,54,1757714275109,7,971,-132,196,-210,560,-280,31
2,54,1757714275109,8,971,-132,196,-280,490,-140,31
2,54,1757714275109,9,971,-132,196,-210,560,-210,31
2,55,1757714275275,0,971,-132,196,-210,560,-210,31
2,55,1757714275275,1,971,-132,196,-280,490,-140,31
2,55,1757714275275,2,971,-132,196,-280,560,-210,31
2,55,1757714275275,3,971,-132,196,-210,490,-210,31
2,55,1757714275275,4,971,-132,196,-280,420,-70,31
2,55,1757714275275,5,971,-132,196,-210,560,-210,31
2,55,1757714275275,6,971,-132,196,-280,560,-140,31
2,55,1757714275275,7,971,-132,196,-280,350,-70,31
2,55,1757714275275,8,971,-132,196,-140,630,-280,31
2,55,1757714275275,9,971,-132,196,-350,350,0,31
2,56,1757714275442,0,971,-132,196,-210,630,-210,31
2,56,1757714275442,1,971,-132,196,-210,560,-210,31
2,56,1757714275442,2,971,-132,196,-280,420,-70,31
2,56,1757714275442,3,971,-132,196,-140,630,-280,31
2,56,1757714275442,4,971,-132,196,-280,420,-70,31
2,56,1757714275442,5,971,-132,196,-210,560,-210,31
2,56,1757714275442,6,971,-132,196,-210,490,-210,31
2,56,1757714275442,7,971,-132,196,-280,490,-70,31
2,56,1757714275442,8,971,-132,196,-210,560,-280,31
2,56,1757714275442,9,971,-132,196,-280,490,-70,31
2,57,1757714275609,0,971,-132,196,-210,560,-280,31
2,57,1757714275609,1,971,-132,196,-280,490,-140,31
2,57,1757714275609,2,971,-132,196,-210,490,-210,31
2,57,1757714275609,3,971,-132,196,-280,490,-140,31
2,57,1757714275609,4,971,-132,196,-280,560,-140,31
2,57,1757714275609,5,971,-132,196,-280,490,-140,31
2,57,1757714275609,6,971,-132,196,-280,560,-210,31
2,57,1757714275609,7,971,-132,196,-280,490,-140,31
2,57,1757714275609,8,971,-132,196,-280,490,-210,31
2,57,1757714275609,9,971,-132,196,-280,490,-140,31
2,58,1757714275775,0,971,-132,196,-210,560,-210,31
2,58,1757714275775,1,971,-132,196,-280,490,-140,31
2,58,1757714275775,2,971,-132,196,-280,490,-140,31
2,58,1757714275775,3,971,-132,196,-210,490,-210,31
2,58,1757714275775,4,971,-132,196,-280,490,-140,31
2,58,1757714275775,5,971,-132,196,-280,490,-140,31
2,58,1757714275775,6,971,-132,196,-280,490,-140,31
2,58,1757714275775,7,971,-132,196,-280,490,-140,31
2,58,1757714275775,8,971,-132,196,-280,490,-140,31
2,58,1757714275775,9,971,-132,196,-280,490,-140,31
2,59,1757714275942,0,971,-132,196,-280,490,-140,31
2,59,1757714275942,1,971,-132,196,-210,490,-140,31
2,59,1757714275942,2,971,-132,196,-210,490,-140,31
2,59,1757714275942,3,971,-132,196,-210,490,-210,31
2,59,1757714275942,4,971,-132,196,-280,490,-140,31
2,59,1757714275942,5,971,-132,196,-210,490,-210,31
2,59,1757714275942,6,971,-132,196,-280,490,-140,31
2,59,1757714275942,7,971,-132,196,-210,490,-210,31
2,59,1757714275942,8,971,-132,196,-210,490,-140,31
2,59,1757714275942,9,971,-132,196,-280,420,-140,31
2,60,1757714276109,0,971,-132,196,-280,420,-140,31
2,60,1757714276109,1,971,-132,196,-350,420,-70,31
2,60,1757714276109,2,971,-132,196,-210,560,-210,31
2,60,1757714276109,3,971,-132,196,-280,490,-140,31
2,60,1757714276109,4,971,-132,196,-210,560,-210,31
2,60,1757714276109,5,971,-132,196,-280,490,-140,31
2,60,1757714276109,6,971,-132,196,-280,490,-140,31
2,60,1757714276109,7,971,-132,196,-280,490,-140,31
2,60,1757714276109,8,971,-132,196,-210,490,-140,31
2,60,1757714276109,9,971,-132,196,-210,490,-140,31
2,61,1757714276275,0,971,-132,196,-210,560,-210,31
2,61,1757714276275,1,971,-132,196,-210,560,-210,31
2,61,1757714276275,2,971,-132,196,-280,490,-140,31
2,61,1757714276275,3,971,-132,196,-210,560,-140,31
2,61,1757714276275,4,971,-132,196,-280,490,-210,31
2,61,1757714276275,5,971,-132,196,-210,490,-210,31
2,61,1757714276275,6,971,-132,196,-280,490,-140,31
2,61,1757714276275,7,971,-132,196,-210,490,-140,31
2,61,1757714276275,8,971,-132,196,-280,490,-210,31
2,61,1757714276275,9,971,-132,196,-280,420,-70,31
2,62,1757714276442,0,971,-132,196,-210,630,-210,31
2,62,1757714276442,1,971,-132,196,-280,490,-140,31
2,62,1757714276442,2,971,-132,196,-210,560,-210,31
2,62,1757714276442,3,971,-132,196,-280,490,-210,31
2,62,1757714276442,4,971,-132,196,-280,490,-140,31
2,62,1757714276442,5,971,-132,196,-210,560,-280,31
2,62,1757714276442,6,971,-132,196,-280,490,-70,31
2,62,1757714276442,7,971,-132,196,-210,560,-280,31
2,62,1757714276442,8,971,-132,196,-280,560,-210,31
2,62,1757714276442,9,971,-132,196,-280,490,-140,31
2,63,1757714276609,0,971,-132,196,-210,560,-210,31
2,63,1757714276609,1,971,-132,196,-210,490,-210,31
2,63,1757714276609,2,971,-132,196,-280,420,-140,31
2,63,1757714276609,3,971,-132,196,-210,630,-280,31
2,63,1757714276609,4,971,-132,196,-280,420,-70,31
2,63,1757714276609,5,971,-132,196,-280,560,-140,31
2,63,1757714276609,6,971,-132,196,-210,560,-280,31
2,63,1757714276609,7,971,-132,196,-350,420,0,31
2,63,1757714276609,8,971,-132,196,-140,630,-420,31
2,63,1757714276609,9,971,-132,196,-350,350,0,31
2,64,1757714276775,0,971,-132,196,-210,560,-210,31
2,64,1757714276775,1,971,-132,196,-210,560,-210,31
2,64,1757714276775,2,971,-132,196,-280,420,-70,31
2,64,1757714276775,3,971,-132,196,-140,630,-350,31
2,64,1757714276775,4,971,-132,196,-350,350,0,31
2,64,1757714276775,5,971,-132,196,-210,630,-280,31
2,64,1757714276775,6,971,-132,196,-280,490,-140,31
2,64,1757714276775,7,971,-132,196,-210,490,-140,31
2,64,1757714276775,8,971,-132,196,-210,560,-210,31
2,64,1757714276775,9,971,-132,196,-280,420,-140,31
2,65,1757714276942,0,971,-132,196,-210,560,-210,31
2,65,1757714276942,1,971,-132,196,-280,420,-140,31
2,65,1757714276942,2,971,-132,196,-210,560,-210,31
2,65,1757714276942,3,971,-132,196,-280,420,-140,31
2,65,1757714276942,4,971,-132,196,-210,490,-140,31
2,65,1757714276942,5,971,-132,196,-210,560,-280,31
2,65,1757714276942,6,971,-132,196,-350,420,-70,31
2,65,1757714276942,7,971,-132,196,-140,630,-350,31
2,65,1757714276942,8,971,-132,196,-350,350,0,31
2,65,1757714276942,9,971,-132,196,-210,630,-280,31
2,66,1757714277109,0,971,-132,196,-280,490,-140,31
2,66,1757714277109,1,971,-132,196,-280,490,-140,31
2,66,1757714277109,2,971,-132,196,-210,560,-210,31
2,66,1757714277109,3,971,-132,196,-350,490,-70,31
2,66,1757714277109,4,971,-132,196,-210,560,-210,31
2,66,1757714277109,5,971,-132,196,-280,490,-70,31
2,66,1757714277109,6,971,-132,196,-280,560,-210,31
2,66,1757714277109,7,971,-132,196,-280,560,-210,31
2,66,1757714277109,8,971,-132,196,-280,490,-140,31
2,66,1757714277109,9,971,-132,196,-280,490,-140,31
2,67,1757714277275,0,971,-132,196,-280,490,-140,31
2,67,1757714277275,1,971,-132,196,-280,490,-140,31
2,67,1757714277275,2,971,-132,196,-210,490,-140,31
2,67,1757714277275,3,971,-132,196,-280,490,-140,31
2,67,1757714277275,4,971,-132,196,-210,490,-210,31
2,67,1757714277275,5,971,-132,196,-210,560,-140,31
2,67,1757714277275,6,971,-132,196,-280,490,-140,31
2,67,1757714277275,7,971,-132,196,-280,560,-210,31
2,67,1757714277275,8,971,-132,196,-280,420,-140,31
2,67,1757714277275,9,971,-132,196,-210,560,-210,31
2,68,1757714277442,0,971,-132,196,-280,490,-140,31
2,68,1757714277442,1,971,-132,196,-210,560,-140,31
2,68,1757714277442,2,971,-132,196,-280,490,-140,31
2,68,1757714277442,3,971,-132,196,-210,560,-210,31
2,68,1757714277442,4,971,-132,196,-280,490,-140,31
2,68,1757714277442,5,971,-132,196,-210,560,-210,31
2,68,1757714277442,6,971,-132,196,-280,490,-140,31
2,68,1757714277442,7,971,-132,196,-210,490,-210,31
2,68,1757714277442,8,971,-132,196,-280,490,-140,31
2,68,1757714277442,9,971,-132,196,-210,560,-210,31
2,68,1757714277442,0,971,-132,196,-280,490,-140,31
2,68,1757714277442,1,971,-132,196,-210,560,-140,31
2,68,1757714277442,2,971,-132,196,-280,490,-140,31
2,68,1757714277442,3,971,-132,196,-210,560,-210,31
2,68,1757714277442,4,971,-132,196,-280,490,-140,31
2,68,1757714277442,5,971,-132,196,-210,560,-210,31
2,68,1757714277442,6,971,-132,196,-280,490,-140,31
2,68,1757714277442,7,971,-132,196,-210,490,-210,31
2,68,1757714277442,8,971,-132,196,-280,490,-140,31
2,68,1757714277442,9,971,-132,196,-210,560,-210,31
2,70,1757714277775,0,971,-132,196,-280,420,-70,31
2,70,1757714277775,1,971,-132,196,-210,630,-280,31
2,70,1757714277775,2,971,-132,196,-350,350,0,31
2,70,1757714277775,3,971,-132,196,-210,630,-280,31
2,70,1757714277775,4,971,-132,196,-280,490,-140,31
2,70,1757714277775,5,971,-132,196,-280,490,-140,31
2,70,1757714277775,6,971,-132,196,-210,560,-280,31
2,70,1757714277775,7,971,-132,196,-350,420,-70,31
2,70,1757714277775,8,971,-132,196,-210,560,-280,31
2,70,1757714277775,9,971,-132,196,-280,420,-70,31
2,70,1757714277775,0,971,-132,196,-280,420,-70,31
2,70,1757714277775,1,971,-132,196,-210,630,-280,31
2,70,1757714277775,2,971,-132,196,-350,350,0,31
2,70,1757714277775,3,971,-132,196,-210,630,-280,31
2,70,1757714277775,4,971,-132,196,-280,490,-140,31
2,70,1757714277775,5,971,-132,196,-280,490,-140,31
2,70,1757714277775,6,971,-132,196,-210,560,-280,31
2,70,1757714277775,7,971,-132,196,-350,420,-70,31
2,70,1757714277775,8,971,-132,196,-210,560,-280,31
2,70,1757714277775,9,971,-132,196,-280,420,-70,31
2,71,1757714277942,0,971,-132,196,-210,560,-210,31
2,71,1757714277942,1,971,-132,196,-210,490,-140,31
2,71,1757714277942,2,971,-132,196,-280,490,-140,31
2,71,1757714277942,3,971,-132,196,-140,560,-280,31
2,71,1757714277942,4,971,-132,196,-280,420,-70,31
2,71,1757714277942,5,971,-132,196,-210,630,-210,31
2,71,1757714277942,6,971,-132,196,-280,490,-70,31
2,71,1757714277942,7,971,-132,196,-210,490,-210,31
2,71,1757714277942,8,971,-132,196,-280,490,-70,31
2,71,1757714277942,9,971,-132,196,-280,490,-210,31
2,72,1757714278109,0,971,-132,196,-280,490,-70,31
2,72,1757714278109,1,971,-132,196,-210,560,-210,31
2,72,1757714278109,2,971,-132,196,-210,490,-140,31
2,72,1757714278109,3,971,-132,196,-280,490,-140,31
2,72,1757714278109,4,971,-132,196,-210,560,-210,31
2,72,1757714278109,5,971,-132,196,-350,420,-70,31
2,72,1757714278109,6,971,-132,196,-210,560,-210,31
2,72,1757714278109,7,971,-132,196,-280,560,-140,31
2,72,1757714278109,8,971,-132,196,-280,490,-140,31
2,72,1757714278109,9,971,-132,196,-210,560,-210,31
2,73,1757714278275,0,971,-132,196,-210,560,-210,31
2,73,1757714278275,1,971,-132,196,-210,560,-210,31
2,73,1757714278275,2,971,-132,196,-210,560,-210,31
2,73,1757714278275,3,971,-132,196,-210,560,-70,31
2,73,1757714278275,4,971,-132,196,-210,560,-70,31
2,73,1757714278275,5,971,-132,196,-210,560,-280,31
2,73,1757714278275,6,971,-132,196,-210,560,-280,31
2,73,1757714278275,7,971,-132,196,-210,490,-140,31
2,73,1757714278275,8,971,-132,196,-210,630,-280,31
2,73,1757714278275,9,971,-132,196,-350,350,0,31
2,75,1757714278609,0,971,-132,196,-280,420,-70,31
2,75,1757714278609,1,971,-132,196,-210,560,-210,31
2,75,1757714278609,2,971,-132,196,-210,560,-210,31
2,75,1757714278609,3,971,-132,196,-280,560,-210,31
2,75,1757714278609,4,971,-132,196,-280,560,-210,31
2,75,1757714278609,5,971,-132,196,-280,560,-140,31
2,75,1757714278609,6,971,-132,196,-280,560,-140,31
2,75,1757714278609,7,971,-132,196,-280,490,-70,31
2,75,1757714278609,8,971,-132,196,-280,490,-70,31
2,75,1757714278609,9,971,-132,196,-210,560,-70,31
2,76,1757714278775,0,971,-132,196,-210,560,-70,31
2,76,1757714278775,1,971,-132,196,-210,560,-280,31
2,76,1757714278775,2,971,-132,196,-280,490,-70,31
2,76,1757714278775,3,971,-132,196,-280,560,-210,31
2,76,1757714278775,4,971,-132,196,-210,490,-210,31
2,76,1757714278775,5,971,-132,196,-280,490,-140,31
2,76,1757714278775,6,971,-132,196,-210,560,-140,31
2,76,1757714278775,7,971,-132,196,-280,490,-140,31
2,76,1757714278775,8,971,-132,196,-210,490,-140,31
2,76,1757714278775,9,971,-132,196,-280,490,-70,31
2,77,1757714278942,0,971,-132,196,-210,560,-210,31
2,77,1757714278942,1,971,-132,196,-280,490,-70,31
2,77,1757714278942,2,971,-132,196,-210,560,-210,31
2,77,1757714278942,3,971,-132,196,-280,560,-140,31
2,77,1757714278942,4,971,-132,196,-280,420,-140,31
2,77,1757714278942,5,971,-132,196,-210,560,-210,31
2,77,1757714278942,6,971,-132,196,-280,420,-140,31
2,77,1757714278942,7,971,-132,196,-280,490,-70,31
2,77,1757714278942,8,971,-132,196,-210,560,-280,31
2,77,1757714278942,9,971,-132,196,-280,420,-70,31
2,78,1757714279109,0,971,-132,196,-210,560,-210,31
2,78,1757714279109,1,971,-132,196,-210,490,-140,31
2,78,1757714279109,2,971,-132,196,-280,490,-140,31
2,78,1757714279109,3,971,-132,196,-210,490,-210,31
2,78,1757714279109,4,971,-132,196,-280,490,-140,31
2,78,1757714279109,5,971,-132,196,-280,490,-140,31
2,78,1757714279109,6,971,-132,196,-210,560,-210,31
2,78,1757714279109,7,971,-132,196,-280,420,-140,31
2,78,1757714279109,8,971,-132,196,-280,560,-140,31
2,78,1757714279109,9,971,-132,196,-210,490,-210,31
2,79,1757714279275,0,971,-132,196,-280,490,-140,31
2,79,1757714279275,1,971,-132,196,-280,490,-210,31
2,79,1757714279275,2,971,-132,196,-280,490,-140,31
2,79,1757714279275,3,971,-132,196,-210,560,-210,31
2,79,1757714279275,4,971,-132,196,-280,490,-140,31
2,79,1757714279275,5,971,-132,196,-210,490,-210,31
2,79,1757714279275,6,971,-132,196,-280,420,-140,31
2,79,1757714279275,7,971,-132,196,-210,560,-210,31
2,79,1757714279275,8,971,-132,196,-280,490,-140,31
2,79,1757714279275,9,971,-132,196,-280,560,-140,31
2,80,1757714279442,0,971,-132,196,-280,490,-210,31
2,80,1757714279442,1,971,-132,196,-280,490,-140,31
2,80,1757714279442,2,971,-132,196,-280,560,-210,31
2,80,1757714279442,3,971,-132,196,-280,490,-140,31
2,80,1757714279442,4,971,-132,196,-280,490,-140,31
2,80,1757714279442,5,971,-132,196,-210,560,-140,31
2,80,1757714279442,6,971,-132,196,-280,490,-140,31
2,80,1757714279442,7,971,-132,196,-210,560,-210,31
2,80,1757714279442,8,971,-132,196,-280,420,-70,31
2,80,1757714279442,9,971,-132,196,-210,560,-280,31
2,81,1757714279609,0,971,-132,196,-350,420,-70,31
2,81,1757714279609,1,971,-132,196,-210,560,-210,31
2,81,1757714279609,2,971,-132,196,-280,560,-140,31
2,81,1757714279609,3,971,-132,196,-280,420,-140,31
2,81,1757714279609,4,971,-132,196,-210,630,-280,31
2,81,1757714279609,5,971,-132,196,-280,420,-140,31
2,81,1757714279609,6,971,-132,196,-210,560,-210,31
2,81,1757714279609,7,971,-132,196,-210,560,-210,31
2,81,1757714279609,8,971,-132,196,-280,490,-140,31
2,81,1757714279609,9,971,-132,196,-280,490,-140,31
2,82,1757714279775,0,971,-132,196,-210,490,-140,31
2,82,1757714279775,1,971,-132,196,-210,490,-140,31
2,82,1757714279775,2,971,-132,196,-210,560,-280,31
2,82,1757714279775,3,971,-132,196,-210,560,-280,31
2,82,1757714279775,4,971,-132,196,-280,420,0,31
2,82,1757714279775,5,971,-132,196,-280,420,0,31
2,82,1757714279775,6,971,-132,196,-280,490,-140,31
2,82,1757714279775,7,971,-132,196,-280,420,-140,31
2,82,1757714279775,8,971,-132,196,-140,630,-280,31
2,82,1757714279775,9,971,-132,196,-280,420,-70,31
2,83,1757714279942,0,971,-132,196,-280,490,-140,31
2,83,1757714279942,1,971,-132,196,-280,490,-70,31
2,83,1757714279942,2,971,-132,196,-210,560,-280,31
2,83,1757714279942,3,971,-132,196,-280,420,-70,31
2,83,1757714279942,4,971,-132,196,-210,560,-210,31
2,83,1757714279942,5,971,-132,196,-280,490,-140,31
2,83,1757714279942,6,971,-132,196,-280,490,-140,31
2,83,1757714279942,7,971,-132,196,-210,560,-210,31
2,83,1757714279942,8,971,-132,196,-210,560,-140,31
2,83,1757714279942,9,971,-132,196,-210,490,-210,31
2,84,1757714280109,0,971,-132,196,-280,560,-140,31
2,84,1757714280109,1,971,-132,196,-280,560,-140,31
2,84,1757714280109,2,971,-132,196,-280,490,-140,31
2,84,1757714280109,3,971,-132,196,-280,490,-140,31
2,84,1757714280109,4,971,-132,196,-280,490,-210,31
2,84,1757714280109,5,971,-132,196,-280,490,-140,31
2,84,1757714280109,6,971,-132,196,-280,560,-210,31
2,84,1757714280109,7,971,-132,196,-280,560,-140,31
2,84,1757714280109,8,971,-132,196,-280,490,-140,31
2,84,1757714280109,9,971,-132,196,-210,490,-210,31
2,85,1757714280275,0,971,-132,196,-280,490,-140,31
2,85,1757714280275,1,971,-132,196,-210,560,-210,31
2,85,1757714280275,2,971,-132,196,-280,490,-70,31
2,85,1757714280275,3,971,-132,196,-210,560,-280,31
2,85,1757714280275,4,971,-132,196,-280,420,-70,31
2,85,1757714280275,5,971,-132,196,-210,490,-210,31
2,85,1757714280275,6,971,-132,196,-280,490,-140,31
2,85,1757714280275,7,971,-132,196,-280,490,-140,31
2,85,1757714280275,8,971,-132,196,-210,560,-210,31
2,85,1757714280275,9,971,-132,196,-280,420,-140,31
2,86,1757714280442,0,971,-132,196,-210,560,-210,31
2,86,1757714280442,1,971,-132,196,-280,490,-210,31
2,86,1757714280442,2,971,-132,196,-280,490,-140,31
2,86,1757714280442,3,971,-132,197,-210,560,-210,31
2,86,1757714280442,4,971,-132,197,-280,490,-140,31
2,86,1757714280442,5,971,-132,197,-210,560,-210,31
2,86,1757714280442,6,971,-132,196,-280,420,-140,31
2,86,1757714280442,7,971,-132,196,-210,560,-210,31
2,86,1757714280442,8,971,-132,197,-280,420,-140,31
2,86,1757714280442,9,971,-132,196,-210,560,-140,31
2,87,1757714280609,0,971,-132,196,-280,490,-210,31
2,87,1757714280609,1,971,-132,196,-280,490,-140,31
2,87,1757714280609,2,971,-132,196,-210,560,-210,31
2,87,1757714280609,3,971,-132,197,-280,490,-70,31
2,87,1757714280609,4,971,-132,197,-210,490,-210,31
2,87,1757714280609,5,971,-132,197,-210,560,-140,31
2,87,1757714280609,6,971,-132,196,-280,490,-70,31
2,87,1757714280609,7,971,-132,196,-210,560,-280,31
2,87,1757714280609,8,971,-132,196,-280,490,-140,31
2,87,1757714280609,9,971,-132,196,-280,490,-140,31
2,88,1757714280775,0,971,-132,196,-210,630,-280,31
2,88,1757714280775,1,971,-132,196,-210,630,-280,31
2,88,1757714280775,2,971,-132,196,-140,700,-350,31
2,88,1757714280775,3,971,-132,196,-140,700,-350,31
2,88,1757714280775,4,971,-132,196,-210,560,-210,31
2,88,1757714280775,5,971,-132,196,-210,560,-210,31
2,88,1757714280775,6,971,-132,196,-280,490,-70,31
2,88,1757714280775,7,971,-132,196,-280,490,-70,31
2,88,1757714280775,8,971,-132,196,-210,560,-210,31
2,88,1757714280775,9,971,-132,196,-210,560,-210,31
2,89,1757714280942,0,971,-132,196,-210,490,-140,31
2,89,1757714280942,1,971,-132,196,-280,490,-140,31
2,89,1757714280942,2,971,-132,196,-210,560,-210,31
2,89,1757714280942,3,971,-132,196,-280,420,-70,31
2,89,1757714280942,4,971,-132,196,-210,560,-280,31
2,89,1757714280942,5,971,-132,196,-350,490,-70,31
2,89,1757714280942,6,971,-132,196,-280,560,-210,31
2,89,1757714280942,7,971,-132,196,-280,560,-140,31
2,89,1757714280942,8,971,-132,196,-280,490,-140,31
2,89,1757714280942,9,971,-132,196,-210,560,-210,31
2,90,1757714281109,0,971,-132,196,-280,490,-140,31
2,90,1757714281109,1,971,-132,196,-280,490,-140,31
2,90,1757714281109,2,971,-132,196,-280,490,-140,31
2,90,1757714281109,3,971,-132,196,-280,490,-140,31
2,90,1757714281109,4,971,-132,196,-210,490,-140,31
2,90,1757714281109,5,971,-132,196,-210,560,-210,31
2,90,1757714281109,6,971,-132,196,-210,490,-210,31
2,90,1757714281109,7,971,-132,196,-280,490,-140,31
2,90,1757714281109,8,971,-132,196,-210,490,-210,31
2,90,1757714281109,9,971,-132,196,-280,490,-140,31
2,91,1757714281275,0,971,-132,196,-280,490,-140,31
2,91,1757714281275,1,971,-132,196,-210,630,-210,31
2,91,1757714281275,2,971,-132,196,-350,420,-70,31
2,91,1757714281275,3,971,-132,196,-210,630,-210,31
2,91,1757714281275,4,971,-132,196,-280,490,-140,31
2,91,1757714281275,5,971,-132,196,-280,490,-70,31
2,91,1757714281275,6,971,-132,196,-210,630,-280,31
2,91,1757714281275,7,971,-132,196,-280,350,0,31
2,91,1757714281275,8,971,-132,196,-210,630,-280,31
2,91,1757714281275,9,971,-132,196,-280,420,-70,31
2,92,1757714281442,0,971,-132,196,-210,560,-210,31
2,92,1757714281442,1,971,-132,196,-280,420,0,31
2,92,1757714281442,2,971,-132,196,-280,420,0,31
2,92,1757714281442,3,971,-132,196,-350,420,-70,31
2,92,1757714281442,4,971,-132,196,-350,420,-70,31
2,92,1757714281442,5,971,-132,196,-280,490,-140,31
2,92,1757714281442,6,971,-132,196,-280,490,-140,31
2,92,1757714281442,7,971,-132,196,-280,490,-210,31
2,92,1757714281442,8,971,-132,196,-280,490,-210,31
2,92,1757714281442,9,971,-132,196,-280,490,-210,31
2,93,1757714281609,0,971,-132,196,-280,490,-140,31
2,93,1757714281609,1,971,-132,196,-210,490,-210,31
2,93,1757714281609,2,971,-132,196,-280,490,-140,31
2,93,1757714281609,3,971,-132,196,-280,490,-140,31
2,93,1757714281609,4,971,-132,196,-210,560,-210,31
2,93,1757714281609,5,971,-132,196,-280,490,-140,31
2,93,1757714281609,6,971,-132,196,-210,490,-210,31
2,93,1757714281609,7,971,-132,196,-210,490,-140,31
2,93,1757714281609,8,971,-132,196,-280,490,-210,31
2,93,1757714281609,9,971,-132,196,-280,490,-140,31
2,94,1757714281775,0,971,-132,196,-210,490,-210,31
2,94,1757714281775,1,971,-132,196,-280,490,-140,31
2,94,1757714281775,2,971,-132,196,-210,560,-210,31
2,94,1757714281775,3,971,-132,196,-280,490,-140,31
2,94,1757714281775,4,971,-132,196,-280,490,-210,31
2,94,1757714281775,5,971,-132,196,-210,490,-140,31
2,94,1757714281775,6,971,-132,196,-280,490,-70,31
2,94,1757714281775,7,971,-132,196,-210,560,-210,31
2,94,1757714281775,8,971,-132,196,-280,560,-140,31
2,94,1757714281775,9,971,-132,196,-280,490,-210,31
2,95,1757714281942,0,971,-132,196,-210,560,-210,31
2,95,1757714281942,1,971,-132,196,-280,490,-140,31
2,95,1757714281942,2,971,-132,196,-280,490,-140,31
2,95,1757714281942,3,971,-132,196,-280,490,-140,31
2,95,1757714281942,4,971,-132,196,-210,560,-210,31
2,95,1757714281942,5,971,-132,196,-280,490,-140,31
2,95,1757714281942,6,971,-132,196,-210,490,-140,31
2,95,1757714281942,7,971,-132,196,-210,560,-210,31
2,95,1757714281942,8,971,-132,196,-280,490,-70,31
2,95,1757714281942,9,971,-132,196,-280,560,-210,31
2,96,1757714282109,0,971,-132,196,-280,420,-70,31
2,96,1757714282109,1,971,-132,196,-210,560,-140,31
2,96,1757714282109,2,971,-132,196,-280,490,-140,31
2,96,1757714282109,3,971,-132,196,-280,490,-140,31
2,96,1757714282109,4,971,-132,196,-280,490,-210,31
2,96,1757714282109,5,971,-132,196,-280,560,-210,31
2,96,1757714282109,6,971,-132,196,-280,490,-140,31
2,96,1757714282109,7,971,-132,196,-210,490,-140,31
2,96,1757714282109,8,971,-132,196,-280,490,-140,31
2,96,1757714282109,9,971,-132,196,-280,490,-140,31
2,97,1757714282275,0,971,-132,196,-210,490,-140,31
2,97,1757714282275,1,971,-132,196,-280,490,-140,31
2,97,1757714282275,2,971,-132,196,-280,560,-210,31
2,97,1757714282275,3,971,-132,196,-280,490,-210,31
2,97,1757714282275,4,971,-132,196,-280,490,-70,31
2,97,1757714282275,5,971,-132,196,-210,560,-280,31
2,97,1757714282275,6,971,-132,196,-350,490,-70,31
2,97,1757714282275,7,971,-132,196,-210,560,-210,31
2,97,1757714282275,8,971,-132,196,-280,490,-140,31
2,97,1757714282275,9,971,-132,196,-280,490,-140,31
2,98,1757714282442,0,971,-132,196,-210,560,-140,31
2,98,1757714282442,1,971,-132,196,-280,490,-140,31
2,98,1757714282442,2,971,-132,196,-210,560,-210,31
2,98,1757714282442,3,971,-132,196,-280,490,-140,31
2,98,1757714282442,4,971,-132,196,-210,490,-140,31
2,98,1757714282442,5,971,-132,196,-280,560,-210,31
2,98,1757714282442,6,971,-132,196,-280,490,-140,31
2,98,1757714282442,7,971,-132,196,-280,490,-140,31
2,98,1757714282442,8,971,-132,196,-280,490,-140,31
2,98,1757714282442,9,971,-132,196,-280,490,-70,31
2,99,1757714282609,0,971,-132,196,-280,490,-70,31
2,99,1757714282609,1,971,-132,196,-280,490,-140,31
2,99,1757714282609,2,971,-132,196,-280,490,-140,31
2,99,1757714282609,3,971,-132,196,-280,560,-140,31
2,99,1757714282609,4,971,-132,196,-280,560,-140,31
2,99,1757714282609,5,971,-132,196,-280,490,-140,31
2,99,1757714282609,6,971,-132,196,-210,560,-210,31
2,99,1757714282609,7,971,-132,196,-280,490,-210,31
2,99,1757714282609,8,971,-132,196,-210,490,-140,31
2,99,1757714282609,9,971,-132,196,-280,560,-210,31
2,100,1757714282775,0,971,-132,196,-210,560,-210,31
2,100,1757714282775,1,971,-132,196,-210,560,-210,31
2,100,1757714282775,2,971,-132,196,-280,420,-140,31
2,100,1757714282775,3,971,-132,196,-210,560,-210,31
2,100,1757714282775,4,971,-132,196,-210,490,-210,31
2,100,1757714282775,5,971,-132,196,-280,490,-70,31
2,100,1757714282775,6,971,-132,196,-210,560,-280,31
2,100,1757714282775,7,971,-132,196,-280,420,-70,31
2,100,1757714282775,8,971,-132,196,-280,490,-210,31
2,100,1757714282775,9,971,-132,196,-280,560,-140,31
2,101,1757714282942,0,971,-132,196,-280,490,-140,31
2,101,1757714282942,1,971,-132,196,-280,490,-210,31
2,101,1757714282942,2,971,-132,196,-280,490,-210,31
2,101,1757714282942,3,971,-132,196,-210,560,-140,31
2,101,1757714282942,4,971,-132,196,-210,560,-140,31
2,101,1757714282942,5,971,-132,196,-280,490,-140,31
2,101,1757714282942,6,971,-132,196,-210,560,-210,31
2,101,1757714282942,7,971,-132,196,-280,490,-140,31
2,101,1757714282942,8,971,-132,196,-280,560,-140,31
2,101,1757714282942,9,971,-132,196,-210,490,-140,31
2,102,1757714283109,0,971,-132,196,-210,560,-140,31
2,102,1757714283109,1,971,-132,196,-280,560,-210,31
2,102,1757714283109,2,971,-132,196,-280,490,-70,31
2,102,1757714283109,3,971,-132,196,-210,560,-350,31
2,102,1757714283109,4,971,-132,196,-350,350,0,31
2,102,1757714283109,5,971,-132,196,-210,630,-350,31
2,102,1757714283109,6,971,-132,196,-280,490,-140,31
2,102,1757714283109,7,971,-132,196,-280,490,-140,31
2,102,1757714283109,8,971,-132,196,-210,560,-280,31
2,102,1757714283109,9,971,-132,196,-280,490,-140,31
2,103,1757714283275,0,971,-132,196,-280,560,-210,31
2,103,1757714283275,1,971,-132,196,-210,490,-140,31
2,103,1757714283275,2,971,-132,196,-280,490,-210,31
2,103,1757714283275,3,971,-132,196,-280,560,-140,31
2,103,1757714283275,4,971,-132,196,-280,490,-210,31
2,103,1757714283275,5,971,-132,196,-280,490,-140,31
2,103,1757714283275,6,971,-132,196,-280,490,-210,31
2,103,1757714283275,7,971,-132,196,-210,560,-140,31
2,103,1757714283275,8,971,-132,196,-280,490,-140,31
2,103,1757714283275,9,971,-132,196,-280,490,-140,31
2,104,1757714283442,0,971,-132,196,-280,490,-140,31
2,104,1757714283442,1,971,-132,196,-280,490,-140,31
2,104,1757714283442,2,971,-132,196,-280,560,-210,31
2,104,1757714283442,3,971,-132,196,-280,420,-140,31
2,104,1757714283442,4,971,-132,196,-210,560,-210,31
2,104,1757714283442,5,971,-132,196,-280,420,-140,31
2,104,1757714283442,6,971,-132,197,-280,560,-140,31
2,104,1757714283442,7,971,-132,197,-210,490,-210,31
2,104,1757714283442,8,971,-132,197,-210,490,-210,31
2,104,1757714283442,9,971,-132,197,-280,490,-210,31
2,105,1757714283609,0,971,-132,196,-280,490,-140,31
2,105,1757714283609,1,971,-132,197,-280,490,-140,31
2,105,1757714283609,2,971,-132,197,-210,560,-210,31
2,105,1757714283609,3,971,-132,196,-280,490,-140,31
2,105,1757714283609,4,971,-132,196,-280,490,-140,31
2,105,1757714283609,5,971,-132,196,-210,490,-210,31
2,105,1757714283609,6,971,-132,196,-280,490,-140,31
2,105,1757714283609,7,971,-132,196,-280,490,-140,31
2,105,1757714283609,8,971,-132,196,-210,560,-210,31
2,105,1757714283609,9,971,-132,196,-280,490,-70,31
2,106,1757714283775,0,971,-132,196,-210,560,-210,31
2,106,1757714283775,1,971,-132,196,-280,490,-70,31
2,106,1757714283775,2,971,-132,196,-280,490,-210,31
2,106,1757714283775,3,971,-132,196,-210,490,-140,31
2,106,1757714283775,4,971,-132,196,-280,490,-140,31
2,106,1757714283775,5,971,-132,196,-210,560,-210,31
2,106,1757714283775,6,971,-132,196,-280,420,-140,31
2,106,1757714283775,7,971,-132,196,-210,490,-210,31
2,106,1757714283775,8,971,-132,196,-280,560,-210,31
2,106,1757714283775,9,971,-132,196,-280,490,-140,31
2,107,1757714283942,0,971,-132,196,-280,490,-140,31
2,107,1757714283942,1,971,-132,196,-280,490,-210,31
2,107,1757714283942,2,971,-132,196,-280,490,-140,31
2,107,1757714283942,3,971,-132,196,-280,490,-140,31
2,107,1757714283942,4,971,-132,196,-210,560,-140,31
2,107,1757714283942,5,971,-132,196,-210,560,-140,31
2,107,1757714283942,6,971,-132,196,-280,490,-140,31
2,107,1757714283942,7,971,-132,196,-280,490,-140,31
2,107,1757714283942,8,971,-132,196,-210,560,-210,31
2,107,1757714283942,9,971,-132,196,-210,490,-140,31
2,108,1757714284109,0,971,-132,196,-280,560,-210,31
2,108,1757714284109,1,971,-132,196,-280,490,-140,31
2,108,1757714284109,2,971,-132,196,-280,490,-140,31
2,108,1757714284109,3,971,-132,196,-210,490,-210,31
2,108,1757714284109,4,971,-132,196,-280,490,-70,31
2,108,1757714284109,5,971,-132,196,-210,490,-210,31
2,108,1757714284109,6,971,-132,196,-280,490,-70,31
2,108,1757714284109,7,971,-132,196,-210,560,-280,31
2,108,1757714284109,8,971,-132,196,-280,490,-70,31
2,108,1757714284109,9,971,-132,196,-210,490,-210,31
2,109,1757714284275,0,971,-132,196,-280,490,-140,31
2,109,1757714284275,1,971,-132,196,-280,490,-140,31
2,109,1757714284275,2,971,-132,196,-210,560,-210,31
2,109,1757714284275,3,971,-132,196,-280,490,-140,31
2,109,1757714284275,4,971,-132,196,-210,490,-140,31
2,109,1757714284275,5,971,-132,196,-210,560,-210,31
2,109,1757714284275,6,971,-132,196,-280,420,-140,31
2,109,1757714284275,7,971,-132,196,-210,560,-280,31
2,109,1757714284275,8,971,-132,196,-280,420,-140,31
2,109,1757714284275,9,971,-132,196,-210,560,-140,31
2,110,1757714284442,0,971,-132,196,-210,490,-210,31
2,110,1757714284442,1,971,-132,196,-280,420,-70,31
2,110,1757714284442,2,971,-132,196,-210,560,-350,31
2,110,1757714284442,3,971,-132,196,-350,420,-70,31
2,110,1757714284442,4,971,-132,196,-210,630,-280,31
2,110,1757714284442,5,971,-132,196,-280,490,-70,31
2,110,1757714284442,6,971,-132,196,-280,560,-210,31
2,110,1757714284442,7,971,-132,196,-280,490,-140,31
2,110,1757714284442,8,971,-132,196,-280,560,-140,31
2,110,1757714284442,9,971,-132,196,-210,560,-210,31
2,111,1757714284609,0,971,-132,196,-280,420,-70,31
2,111,1757714284609,1,971,-132,196,-210,630,-280,31
2,111,1757714284609,2,971,-132,196,-350,420,-70,31
2,111,1757714284609,3,971,-132,196,-210,560,-210,31
2,111,1757714284609,4,971,-132,196,-210,490,-210,31
2,111,1757714284609,5,971,-132,196,-280,420,-140,31
2,111,1757714284609,6,971,-132,196,-210,630,-210,31
2,111,1757714284609,7,971,-132,196,-280,420,-70,31
2,111,1757714284609,8,971,-132,196,-210,560,-210,31
2,111,1757714284609,9,971,-132,196,-280,560,-210,31
2,112,1757714284775,0,971,-132,196,-280,420,-70,31
2,112,1757714284775,1,971,-132,196,-210,630,-280,31
2,112,1757714284775,2,971,-132,196,-280,420,-70,31
2,112,1757714284775,3,971,-132,196,-210,490,-210,31
2,112,1757714284775,4,971,-132,196,-210,490,-140,31
2,112,1757714284775,5,971,-132,196,-280,350,-70,31
2,112,1757714284775,6,971,-132,196,-140,770,-420,31
2,112,1757714284775,7,971,-132,196,-350,420,0,31
2,112,1757714284775,8,971,-132,196,-280,490,-140,31
2,112,1757714284775,9,971,-132,196,-140,630,-280,31
2,113,1757714284942,0,971,-132,196,-350,420,-70,31
2,113,1757714284942,1,971,-132,196,-280,490,-140,31
2,113,1757714284942,2,971,-132,196,-210,630,-350,31
2,113,1757714284942,3,971,-132,196,-280,350,0,31
2,113,1757714284942,4,971,-132,196,-140,770,-420,31
2,113,1757714284942,5,971,-132,196,-140,770,-420,31
2,113,1757714284942,6,971,-132,196,-210,560,-210,31
2,113,1757714284942,7,971,-132,196,-210,560,-210,31
2,113,1757714284942,8,971,-132,196,-280,490,-140,31
2,113,1757714284942,9,971,-132,196,-210,560,-210,31
2,114,1757714285109,0,971,-132,196,-280,420,-70,31
2,114,1757714285109,1,971,-132,196,-210,630,-280,31
2,114,1757714285109,2,971,-132,196,-350,350,-70,31
2,114,1757714285109,3,971,-132,196,-140,630,-280,31
2,114,1757714285109,4,971,-132,196,-350,420,0,31
2,114,1757714285109,5,971,-132,196,-210,630,-280,31
2,114,1757714285109,6,971,-132,196,-280,420,-140,31
2,114,1757714285109,7,971,-132,196,-210,630,-210,31
2,114,1757714285109,8,971,-132,196,-350,420,-70,31
2,114,1757714285109,9,971,-132,196,-210,560,-280,31
2,115,1757714285275,0,971,-132,196,-210,490,-210,31
2,115,1757714285275,1,971,-132,196,-210,560,-210,31
2,115,1757714285275,2,971,-132,196,-280,490,-140,31
2,115,1757714285275,3,971,-132,196,-280,490,-140,31
2,115,1757714285275,4,971,-132,196,-210,560,-210,31
2,115,1757714285275,5,971,-132,196,-280,490,-140,31
2,115,1757714285275,6,971,-132,196,-280,420,-140,31
2,115,1757714285275,7,971,-132,196,-210,630,-210,31
2,115,1757714285275,8,971,-132,196,-280,420,-70,31
2,115,1757714285275,9,971,-132,196,-280,420,-70,31
2,116,1757714285442,0,971,-132,196,-280,490,-140,31
2,116,1757714285442,1,971,-132,196,-280,490,-140,31
2,116,1757714285442,2,971,-132,196,-210,490,-140,31
2,116,1757714285442,3,971,-132,196,-210,560,-210,31
2,116,1757714285442,4,971,-132,196,-210,560,-280,31
2,116,1757714285442,5,971,-132,196,-210,560,-280,31
2,116,1757714285442,6,971,-132,196,-280,490,-70,31
2,116,1757714285442,7,971,-132,196,-280,490,-140,31
2,116,1757714285442,8,971,-132,196,-210,630,-350,31
2,116,1757714285442,9,971,-132,196,-350,420,0,31
2,117,1757714285609,0,971,-132,196,-210,560,-280,31
2,117,1757714285609,1,971,-132,196,-280,490,-140,31
2,117,1757714285609,2,971,-132,196,-280,490,-140,31
2,117,1757714285609,3,971,-132,196,-210,630,-210,31
2,117,1757714285609,4,971,-132,196,-280,420,-70,31
2,117,1757714285609,5,971,-132,196,-140,560,-280,31
2,117,1757714285609,6,971,-132,196,-280,490,-70,31
2,117,1757714285609,7,971,-132,196,-210,560,-210,31
2,117,1757714285609,8,971,-132,196,-280,490,-210,31
2,117,1757714285609,9,971,-132,196,-210,490,-210,31
2,117,1757714285609,0,971,-132,196,-210,560,-280,31
2,117,1757714285609,1,971,-132,196,-280,490,-140,31
2,117,1757714285609,2,971,-132,196,-280,490,-140,31
2,117,1757714285609,3,971,-132,196,-210,630,-210,31
2,117,1757714285609,4,971,-132,196,-280,420,-70,31
2,117,1757714285609,5,971,-132,196,-140,560,-280,31
2,117,1757714285609,6,971,-132,196,-280,490,-70,31
2,117,1757714285609,7,971,-132,196,-210,560,-210,31
2,117,1757714285609,8,971,-132,196,-280,490,-210,31
2,117,1757714285609,9,971,-132,196,-210,490,-210,31
2,118,1757714285775,0,971,-132,196,-280,560,-140,31
2,118,1757714285775,1,971,-132,196,-280,490,-140,31
2,118,1757714285775,2,971,-132,196,-210,560,-210,31
2,118,1757714285775,3,971,-132,196,-280,490,-140,31
2,118,1757714285775,4,971,-132,196,-210,560,-210,31
2,118,1757714285775,5,971,-132,196,-280,420,-140,31
2,118,1757714285775,6,971,-132,196,-280,560,-140,31
2,118,1757714285775,7,971,-132,196,-210,560,-280,31
2,118,1757714285775,8,971,-132,196,-280,420,-70,31
2,118,1757714285775,9,971,-132,196,-420,350,210,31
2,120,1757714286109,0,971,-132,196,0,910,-700,31
2,120,1757714286109,1,971,-132,196,-490,70,350,31
2,120,1757714286109,2,971,-132,196,0,840,-630,31
2,120,1757714286109,3,971,-132,196,-420,280,210,31
2,120,1757714286109,4,971,-132,196,-140,700,-420,31
2,120,1757714286109,5,971,-132,196,-350,420,0,31
2,120,1757714286109,6,971,-132,196,-210,630,-280,31
2,120,1757714286109,7,971,-132,196,-350,420,-70,31
2,120,1757714286109,8,971,-132,196,-210,630,-280,31
2,120,1757714286109,9,971,-132,196,-350,350,0,31
2,120,1757714286109,0,971,-132,196,0,910,-700,31
2,120,1757714286109,1,971,-132,196,-490,70,350,31
2,120,1757714286109,2,971,-132,196,0,840,-630,31
2,120,1757714286109,3,971,-132,196,-420,280,210,31
2,120,1757714286109,4,971,-132,196,-140,700,-420,31
2,120,1757714286109,5,971,-132,196,-350,420,0,31
2,120,1757714286109,6,971,-132,196,-210,630,-280,31
2,120,1757714286109,7,971,-132,196,-350,420,-70,31
2,120,1757714286109,8,971,-132,196,-210,630,-280,31
2,120,1757714286109,9,971,-132,196,-350,350,0,31
2,121,1757714286275,0,971,-132,196,-210,630,-280,31
2,121,1757714286275,1,971,-132,196,-280,420,-140,31
2,121,1757714286275,2,971,-132,196,-210,490,-140,31
2,121,1757714286275,3,971,-132,196,-210,630,-280,31
2,121,1757714286275,4,971,-132,196,-280,420,0,31
2,121,1757714286275,5,971,-132,196,-210,560,-280,31
2,121,1757714286275,6,971,-132,196,-210,490,-140,31
2,121,1757714286275,7,971,-132,196,-280,560,-140,31
2,121,1757714286275,8,971,-132,196,-210,560,-210,31
2,121,1757714286275,9,971,-132,196,-350,420,0,31
2,122,1757714286442,0,971,-132,196,-140,700,-420,31
2,122,1757714286442,1,971,-132,196,-350,420,0,31
2,122,1757714286442,2,971,-132,196,-350,420,0,31
2,122,1757714286442,3,971,-132,196,-140,630,-210,31
2,122,1757714286442,4,971,-132,196,-140,630,-210,31
2,122,1757714286442,5,971,-132,196,-350,350,0,31
2,122,1757714286442,6,971,-132,196,-70,700,-350,31
2,122,1757714286442,7,971,-132,196,-420,280,70,31
2,122,1757714286442,8,971,-132,196,-140,700,-350,31
2,122,1757714286442,9,971,-132,196,-280,490,-70,31
2,124,1757714286775,0,971,-132,196,-350,420,0,31
2,124,1757714286775,1,971,-132,196,-350,420,0,31
2,124,1757714286775,2,971,-132,196,-210,490,-140,31
2,124,1757714286775,3,971,-132,196,-210,490,-140,31
2,124,1757714286775,4,971,-132,196,-140,630,-280,31
2,124,1757714286775,5,971,-132,196,-140,630,-280,31
2,124,1757714286775,6,971,-132,196,-350,350,-350,31
2,124,1757714286775,7,971,-132,196,-350,350,-350,31
2,124,1757714286775,8,971,-132,196,-280,420,-70,31
2,124,1757714286775,9,971,-132,196,-280,420,-70,31
2,125,1757714286942,0,971,-132,196,-280,560,-210,31
2,125,1757714286942,1,971,-132,196,-280,490,-140,31
2,125,1757714286942,2,971,-132,196,-280,560,-210,31
2,125,1757714286942,3,971,-132,196,-280,420,-140,31
2,125,1757714286942,4,971,-132,196,-210,560,-210,31
2,125,1757714286942,5,971,-132,196,-280,490,-210,31
2,125,1757714286942,6,971,-132,196,-280,560,-140,31
2,125,1757714286942,7,971,-132,196,-210,560,-210,31
2,125,1757714286942,8,971,-132,196,-280,420,-70,31
2,125,1757714286942,9,971,-132,196,-210,560,-280,31
2,126,1757714287109,0,971,-132,196,-420,210,140,31
2,126,1757714287109,1,971,-132,196,140,910,-840,31
2,126,1757714287109,2,971,-132,196,-630,0,560,31
2,126,1757714287109,3,971,-132,196,140,1190,-910,31
2,126,1757714287109,4,971,-132,196,-630,-140,630,31
2,126,1757714287109,5,971,-132,196,70,1050,-770,31
2,126,1757714287109,6,971,-132,196,-490,140,210,31
2,126,1757714287109,7,971,-132,196,-140,700,-350,31
2,126,1757714287109,8,971,-132,196,-280,420,-70,31
2,126,1757714287109,9,971,-132,196,-140,630,-280,31
2,127,1757714287275,0,971,-132,196,-350,490,-70,31
2,127,1757714287275,1,971,-132,196,-210,420,-210,31
2,127,1757714287275,2,971,-132,196,-280,630,-140,31
2,127,1757714287275,3,971,-132,196,-140,560,-350,31
2,127,1757714287275,4,971,-132,196,-350,350,70,31
2,127,1757714287275,5,971,-132,196,-140,700,-420,31
2,127,1757714287275,6,971,-132,196,-350,420,0,31
2,127,1757714287275,7,971,-132,196,-210,490,-210,31
2,127,1757714287275,8,971,-132,196,-140,630,-280,31
2,127,1757714287275,9,971,-132,196,-350,280,0,31
2,128,1757714287442,0,971,-132,196,-70,770,-420,31
2,128,1757714287442,1,971,-132,196,-350,280,70,31
2,128,1757714287442,2,971,-132,196,-210,630,-280,31
2,128,1757714287442,3,971,-132,196,-280,420,-140,31
2,128,1757714287442,4,971,-132,196,-210,490,-140,31
2,128,1757714287442,5,971,-132,196,-280,490,-140,31
2,128,1757714287442,6,971,-132,196,-210,560,-210,31
2,128,1757714287442,7,971,-132,196,-350,420,-70,31
2,128,1757714287442,8,971,-132,196,-140,630,-280,31
2,128,1757714287442,9,971,-132,196,-350,350,70,31
2,129,1757714287609,0,971,-132,196,-140,700,-420,31
2,129,1757714287609,1,971,-132,196,-350,420,70,31
2,129,1757714287609,2,971,-132,196,-210,630,-280,31
2,129,1757714287609,3,971,-132,196,-280,420,-70,31
2,129,1757714287609,4,971,-132,196,-210,560,-210,31
2,129,1757714287609,5,971,-132,196,-280,490,-140,31
2,129,1757714287609,6,971,-132,196,-280,560,-210,31
2,129,1757714287609,7,971,-132,196,-210,560,-210,31
2,129,1757714287609,8,971,-132,196,-350,420,-70,31
2,129,1757714287609,9,971,-132,196,-140,630,-350,31
2,130,1757714287775,0,971,-132,196,-350,350,0,31
2,130,1757714287775,1,971,-132,196,-210,560,-210,31
2,130,1757714287775,2,971,-132,196,-210,630,-210,31
2,130,1757714287775,3,971,-132,196,-350,350,0,31
2,130,1757714287775,4,971,-132,196,-140,770,-350,31
2,130,1757714287775,5,971,-132,196,-140,770,-350,31
2,130,1757714287775,6,971,-132,196,-210,630,-210,31
2,130,1757714287775,7,971,-132,196,-210,630,-210,31
2,130,1757714287775,8,971,-132,196,-280,420,-70,31
2,130,1757714287775,9,971,-132,196,-280,420,-70,31
2,131,1757714287942,0,971,-132,196,-140,630,-70,31
2,131,1757714287942,1,971,-132,196,-140,630,-70,31
2,131,1757714287942,2,971,-132,196,-210,630,-280,31
2,131,1757714287942,3,971,-132,196,-280,490,-140,31
2,131,1757714287942,4,971,-132,196,-280,490,-140,31
2,131,1757714287942,5,971,-132,196,-210,560,-210,31
2,131,1757714287942,6,971,-132,196,-280,490,-70,31
2,131,1757714287942,7,971,-132,196,-210,560,-280,31
2,131,1757714287942,8,971,-132,196,-280,490,-70,31
2,131,1757714287942,9,971,-132,196,-210,560,-280,31
2,132,1757714288109,0,971,-132,196,-280,420,0,31
2,132,1757714288109,1,971,-132,196,-70,980,-630,31
2,132,1757714288109,2,971,-132,196,-700,-280,770,31
2,132,1757714288109,3,971,-132,196,280,1260,-1120,31
2,132,1757714288109,4,971,-132,196,-560,0,420,31
2,132,1757714288109,5,971,-132,196,-140,700,-420,31
2,132,1757714288109,6,971,-132,196,-280,490,-70,31
2,132,1757714288109,7,971,-132,196,-210,560,-280,31
2,132,1757714288109,8,971,-132,196,-350,350,70,31
2,132,1757714288109,9,971,-132,196,-210,700,-280,31
2,132,1757714288109,0,971,-132,196,-280,420,0,31
2,132,1757714288109,1,971,-132,196,-70,980,-630,31
2,132,1757714288109,2,971,-132,196,-700,-280,770,31
2,132,1757714288109,3,971,-132,196,280,1260,-1120,31
2,132,1757714288109,4,971,-132,196,-560,0,420,31
2,132,1757714288109,5,971,-132,196,-140,700,-420,31
2,132,1757714288109,6,971,-132,196,-280,490,-70,31
2,132,1757714288109,7,971,-132,196,-210,560,-280,31
2,132,1757714288109,8,971,-132,196,-350,350,70,31
2,132,1757714288109,9,971,-132,196,-210,700,-280,31
2,133,1757714288275,0,971,-132,196,-140,910,-630,31
2,133,1757714288275,1,971,-132,196,-700,-70,630,31
2,133,1757714288275,2,971,-132,196,-490,140,280,31
2,133,1757714288275,3,971,-132,196,-490,140,280,31
2,133,1757714288275,4,971,-132,196,-140,700,-420,31
2,133,1757714288275,5,971,-132,196,-280,490,-70,31
2,133,1757714288275,6,971,-132,196,-210,420,-210,31
2,133,1757714288275,7,971,-132,196,-280,560,-140,31
2,133,1757714288275,8,971,-132,196,-210,630,-350,31
2,133,1757714288275,9,971,-132,196,-420,210,210,31
2,134,1757714288442,0,971,-132,196,0,840,-630,31
2,134,1757714288442,1,971,-132,196,-420,210,210,31
2,134,1757714288442,2,971,-132,196,-140,770,-420,31
2,134,1757714288442,3,971,-132,196,-350,420,0,31
2,134,1757714288442,4,971,-132,196,-210,560,-210,31
2,134,1757714288442,5,971,-132,196,-280,490,-140,31
2,134,1757714288442,6,971,-132,196,-280,560,-140,31
2,134,1757714288442,7,971,-132,196,-280,490,-140,31
2,134,1757714288442,8,971,-132,196,-350,420,0,31
2,134,1757714288442,9,971,-132,196,-140,420,-350,31
2,135,1757714288609,0,971,-132,196,-280,630,-70,31
2,135,1757714288609,1,971,-132,196,-210,700,-420,31
2,135,1757714288609,2,971,-132,196,-490,70,420,31
2,135,1757714288609,3,971,-132,196,70,1050,-770,31
2,135,1757714288609,4,971,-132,196,-420,280,210,31
2,135,1757714288609,5,971,-132,196,-350,350,0,31
2,135,1757714288609,6,971,-132,196,0,840,-630,31
2,135,1757714288609,7,971,-132,196,-420,140,210,31
2,135,1757714288609,8,971,-132,196,-140,770,-350,31
2,135,1757714288609,9,971,-132,196,-280,560,-140,31
2,137,1757714288942,0,971,-132,196,-280,420,-70,31
2,137,1757714288942,1,971,-132,196,-280,490,-140,31
2,137,1757714288942,2,971,-132,196,-210,630,-280,31
2,137,1757714288942,3,971,-132,196,-350,350,0,31
2,137,1757714288942,4,971,-132,196,-140,700,-350,31
2,137,1757714288942,5,971,-132,196,-280,420,-70,31
2,137,1757714288942,6,971,-132,196,-210,560,-210,31
2,137,1757714288942,7,971,-132,196,-280,490,-140,31
2,137,1757714288942,8,971,-132,196,-280,490,-140,31
2,137,1757714288942,9,971,-132,196,-280,490,-140,31
2,138,1757714289109,0,971,-132,196,-210,560,-280,31
2,138,1757714289109,1,971,-132,196,-350,420,0,31
2,138,1757714289109,2,971,-132,196,-140,630,-350,31
2,138,1757714289109,3,971,-132,196,-280,350,0,31
2,138,1757714289109,4,971,-132,196,-210,560,-280,31
2,138,1757714289109,5,971,-132,196,-280,560,-210,31
2,138,1757714289109,6,971,-132,196,-280,420,-140,31
2,138,1757714289109,7,971,-132,196,-210,560,-210,31
2,138,1757714289109,8,971,-132,196,-210,490,-210,31
2,138,1757714289109,9,971,-132,196,-350,420,-70,31
2,139,1757714289275,0,971,-132,196,-140,630,-350,31
2,139,1757714289275,1,971,-132,196,-280,350,70,31
2,139,1757714289275,2,971,-132,196,-210,700,-350,31
2,139,1757714289275,3,971,-132,196,-210,700,-350,31
2,139,1757714289275,4,971,-132,196,-280,490,-140,31
2,139,1757714289275,5,971,-132,196,-280,490,-140,31
2,139,1757714289275,6,971,-132,196,-210,560,-280,31
2,139,1757714289275,7,971,-132,196,-350,420,-70,31
2,139,1757714289275,8,971,-132,196,-210,560,-210,31
2,139,1757714289275,9,971,-132,196,-210,560,-140,31
2,140,1757714289442,0,971,-132,196,-280,420,-140,31
2,140,1757714289442,1,971,-132,196,-280,560,-210,31
2,140,1757714289442,2,971,-132,196,-280,490,-210,31
2,140,1757714289442,3,971,-132,196,-280,490,-140,31
2,140,1757714289442,4,971,-132,196,-210,560,-210,31
2,140,1757714289442,5,971,-132,196,-280,420,-70,31
2,140,1757714289442,6,971,-132,196,-210,560,-210,31
2,140,1757714289442,7,971,-132,196,-280,420,-70,31
2,140,1757714289442,8,971,-132,196,-210,630,-280,31
2,140,1757714289442,9,971,-132,196,-350,420,0,31
2,141,1757714289609,0,971,-132,196,-210,630,-280,31
2,141,1757714289609,1,971,-132,196,-280,420,0,31
2,141,1757714289609,2,971,-132,196,-210,630,-280,31
2,141,1757714289609,3,971,-132,196,-350,420,-70,31
2,141,1757714289609,4,971,-132,196,-210,560,-210,31
2,141,1757714289609,5,971,-132,196,-280,490,-210,31
2,141,1757714289609,6,971,-132,196,-280,560,-140,31
2,141,1757714289609,7,971,-132,196,-280,490,-140,31
2,141,1757714289609,8,971,-132,196,-210,560,-210,31
2,141,1757714289609,9,971,-132,196,-280,420,-70,31
2,142,1757714289775,0,971,-132,196,-210,630,-280,31
2,142,1757714289775,1,971,-132,196,-350,420,-70,31
2,142,1757714289775,2,971,-132,196,-210,560,-210,31
2,142,1757714289775,3,971,-132,196,-280,490,-140,31
2,142,1757714289775,4,971,-132,196,-210,490,-140,31
2,142,1757714289775,5,971,-132,196,-210,560,-140,31
2,142,1757714289775,6,971,-132,196,-210,490,-210,31
2,142,1757714289775,7,971,-132,196,-280,490,-70,31
2,142,1757714289775,8,971,-132,196,-210,560,-280,31
2,142,1757714289775,9,971,-132,196,-350,420,-70,31
2,143,1757714289942,0,971,-132,196,-210,560,-280,31
2,143,1757714289942,1,971,-132,196,-280,490,-140,31
2,143,1757714289942,2,971,-132,196,-280,490,-210,31
2,143,1757714289942,3,971,-132,196,-210,490,-210,31
2,143,1757714289942,4,971,-132,196,-280,490,-210,31
2,143,1757714289942,5,971,-132,196,-210,490,-140,31
2,143,1757714289942,6,971,-132,196,-280,490,-210,31
2,143,1757714289942,7,971,-132,196,-210,420,-140,31
2,143,1757714289942,8,971,-132,196,-210,560,-210,31
2,143,1757714289942,9,971,-132,196,-210,490,-140,31
2,144,1757714290109,0,971,-132,196,-210,490,-140,31
2,144,1757714290109,1,971,-132,196,-280,490,-140,31
2,144,1757714290109,2,971,-132,196,-210,560,-210,31
2,144,1757714290109,3,971,-132,196,-280,490,-210,31
2,144,1757714290109,4,971,-132,196,-280,490,-140,31
2,144,1757714290109,5,971,-132,196,-210,490,-210,31
2,144,1757714290109,6,971,-132,196,-280,490,-140,31
2,144,1757714290109,7,971,-132,196,-280,490,-210,31
2,144,1757714290109,8,971,-132,196,-210,560,-210,31
2,144,1757714290109,9,971,-132,196,-280,420,-70,31
2,145,1757714290275,0,971,-132,196,-210,560,-210,31
2,145,1757714290275,1,971,-132,196,-280,490,-140,31
2,145,1757714290275,2,971,-132,196,-210,560,-210,31
2,145,1757714290275,3,971,-132,196,-350,490,-70,31
2,145,1757714290275,4,971,-132,196,-210,560,-280,31
2,145,1757714290275,5,971,-132,196,-280,490,-70,31
2,145,1757714290275,6,971,-132,196,-280,490,-70,31
2,145,1757714290275,7,971,-132,196,-210,560,-140,31
2,145,1757714290275,8,971,-132,196,-210,560,-140,31
2,145,1757714290275,9,971,-132,196,-210,560,-140,31
2,145,1757714290275,0,971,-132,196,-210,560,-210,31
2,145,1757714290275,1,971,-132,196,-280,490,-140,31
2,145,1757714290275,2,971,-132,196,-210,560,-210,31
2,145,1757714290275,3,971,-132,196,-350,490,-70,31
2,145,1757714290275,4,971,-132,196,-210,560,-280,31
2,145,1757714290275,5,971,-132,196,-280,490,-70,31
2,145,1757714290275,6,971,-132,196,-280,490,-70,31
2,145,1757714290275,7,971,-132,196,-210,560,-140,31
2,145,1757714290275,8,971,-132,196,-210,560,-140,31
2,145,1757714290275,9,971,-132,196,-210,560,-140,31
2,147,1757714290609,0,971,-132,196,-350,350,-70,31
2,147,1757714290609,1,971,-132,196,-280,350,-70,31
2,147,1757714290609,2,971,-132,196,-210,630,-210,31
2,147,1757714290609,3,971,-132,196,-280,490,-140,31
2,147,1757714290609,4,971,-132,196,-280,490,-140,31
2,147,1757714290609,5,971,-132,196,-210,560,-210,31
2,147,1757714290609,6,971,-132,196,-210,560,-210,31
2,147,1757714290609,7,971,-132,196,-210,560,-210,31
2,147,1757714290609,8,971,-132,196,-210,560,-210,31
2,147,1757714290609,9,971,-132,196,-210,490,-140,31
2,147,1757714290609,0,971,-132,196,-350,350,-70,31
2,147,1757714290609,1,971,-132,196,-280,350,-70,31
2,147,1757714290609,2,971,-132,196,-210,630,-210,31
2,147,1757714290609,3,971,-132,196,-280,490,-140,31
2,147,1757714290609,4,971,-132,196,-280,490,-140,31
2,147,1757714290609,5,971,-132,196,-210,560,-210,31
2,147,1757714290609,6,971,-132,196,-210,560,-210,31
2,147,1757714290609,7,971,-132,196,-210,560,-210,31
2,147,1757714290609,8,971,-132,196,-210,560,-210,31
2,147,1757714290609,9,971,-132,196,-210,490,-140,31
2,148,1757714290775,0,971,-132,196,-210,490,-140,31
2,148,1757714290775,1,971,-132,196,-210,490,-210,31
2,148,1757714290775,2,971,-132,196,-280,490,-140,31
2,148,1757714290775,3,971,-132,196,-280,490,-140,31
2,148,1757714290775,4,971,-132,196,-210,560,-140,31
2,148,1757714290775,5,971,-132,196,-280,490,-140,31
2,148,1757714290775,6,971,-132,196,-280,560,-140,31
2,148,1757714290775,7,971,-132,196,-280,490,-70,31
2,148,1757714290775,8,971,-132,196,-70,770,-560,31
2,148,1757714290775,9,971,-132,196,-630,-140,560,31
2,149,1757714290942,0,971,-132,196,140,1120,-840,31
2,149,1757714290942,1,971,-132,196,-560,0,420,31
2,149,1757714290942,2,971,-132,196,-70,770,-490,31
2,149,1757714290942,3,971,-132,196,-280,420,-70,31
2,149,1757714290942,4,971,-132,196,-210,490,-210,31
2,149,1757714290942,5,971,-132,196,-280,490,-70,31
2,149,1757714290942,6,971,-132,196,-140,700,-350,31
2,149,1757714290942,7,971,-132,196,-420,280,140,31
2,149,1757714290942,8,971,-132,196,-140,700,-420,31
2,149,1757714290942,9,971,-132,196,-350,350,0,31
2,150,1757714291109,0,971,-132,196,-210,560,-280,31
2,150,1757714291109,1,971,-132,196,-210,490,-140,31
2,150,1757714291109,2,971,-132,196,-280,490,-140,31
2,150,1757714291109,3,971,-132,196,-280,350,-70,31
2,150,1757714291109,4,971,-132,196,-70,770,-490,31
2,150,1757714291109,5,971,-132,196,-420,420,140,31
2,150,1757714291109,6,971,-132,196,-210,490,-210,31
2,150,1757714291109,7,971,-132,196,-70,770,-490,31
2,150,1757714291109,8,971,-132,196,-560,70,490,31
2,150,1757714291109,9,971,-132,196,70,910,-770,31
2,151,1757714291275,0,971,-132,196,-420,210,210,31
2,151,1757714291275,1,971,-132,196,-140,630,-350,31
2,151,1757714291275,2,971,-132,196,-210,560,-140,31
2,151,1757714291275,3,971,-132,196,-280,420,-140,31
2,151,1757714291275,4,971,-132,196,-280,490,-140,31
2,151,1757714291275,5,971,-132,196,-210,560,-210,31
2,151,1757714291275,6,971,-132,196,-210,490,-210,31
2,151,1757714291275,7,971,-132,196,-280,490,-210,31
2,151,1757714291275,8,971,-132,196,-210,490,-140,31
2,151,1757714291275,9,971,-132,196,-280,490,-140,31
2,152,1757714291442,0,971,-132,196,-280,490,-210,31
2,152,1757714291442,1,971,-132,196,-210,560,-210,31
2,152,1757714291442,2,971,-132,196,-280,420,-70,31
2,152,1757714291442,3,971,-132,196,-210,630,-210,31
2,152,1757714291442,4,971,-132,196,-280,490,-210,31
2,152,1757714291442,5,971,-132,196,-280,420,-70,31
2,152,1757714291442,6,971,-132,196,-140,770,-490,31
2,152,1757714291442,7,971,-132,196,-420,210,140,31
2,152,1757714291442,8,971,-132,196,-70,770,-560,31
2,152,1757714291442,9,971,-132,196,-350,350,70,31
2,153,1757714291609,0,971,-132,196,-140,630,-350,31
2,153,1757714291609,1,971,-132,196,-350,350,-70,31
2,153,1757714291609,2,971,-132,196,-140,630,-420,31
2,153,1757714291609,3,971,-132,196,-350,350,0,31
2,153,1757714291609,4,971,-132,196,-140,700,-420,31
2,153,1757714291609,5,971,-132,196,-350,350,0,31
2,153,1757714291609,6,971,-132,196,-140,630,-280,31
2,153,1757714291609,7,971,-132,196,-280,420,-140,31
2,153,1757714291609,8,971,-132,196,-210,560,-210,31
2,153,1757714291609,9,971,-132,196,-280,420,-140,31
2,154,1757714291775,0,971,-132,196,-280,420,-140,31
2,154,1757714291775,1,971,-132,196,-280,420,-70,31
2,154,1757714291775,2,971,-132,196,-280,420,-70,31
2,154,1757714291775,3,971,-132,196,-210,560,-70,31
2,154,1757714291775,4,971,-132,196,-210,560,-70,31
2,154,1757714291775,5,971,-132,196,-280,420,-70,31
2,154,1757714291775,6,971,-132,196,-280,420,-70,31
2,154,1757714291775,7,971,-132,196,-210,560,-280,31
2,154,1757714291775,8,971,-132,196,-280,490,-70,31
2,154,1757714291775,9,971,-132,196,-210,560,-280,31
2,155,1757714291942,0,971,-132,196,-280,490,-70,31
2,155,1757714291942,1,971,-132,196,-210,560,-280,31
2,155,1757714291942,2,971,-132,196,-280,490,-70,31
2,155,1757714291942,3,971,-132,196,-210,560,-210,31
2,155,1757714291942,4,971,-132,196,-280,490,-70,31
2,155,1757714291942,5,971,-132,196,-350,350,70,31
2,155,1757714291942,6,971,-132,196,-140,770,-210,31
2,155,1757714291942,7,971,-132,196,0,700,-700,31
2,155,1757714291942,8,971,-132,196,-1050,-630,1470,31
2,155,1757714291942,9,971,-132,196,980,2380,-2590,31
2,156,1757714292109,0,971,-132,196,770,2240,-2240,31
2,156,1757714292109,1,971,-132,196,-910,-490,1120,31
2,156,1757714292109,2,971,-132,196,70,980,-700,31
2,156,1757714292109,3,971,-132,196,-420,350,140,31
2,156,1757714292109,4,971,-132,196,-420,350,140,31
2,156,1757714292109,5,971,-132,196,-630,-70,560,31
2,156,1757714292109,6,971,-132,196,-630,-70,560,31
2,156,1757714292109,7,971,-132,196,280,-490,980,31
2,156,1757714292109,8,971,-132,196,280,-490,980,31
2,156,1757714292109,9,971,-132,196,280,1400,-1190,31
2,157,1757714292275,0,971,-132,196,280,1400,-1190,31
2,157,1757714292275,1,971,-132,196,-70,840,-490,31
2,157,1757714292275,2,971,-132,196,-280,420,-70,31
2,157,1757714292275,3,971,-132,196,-210,560,-210,31
2,157,1757714292275,4,971,-132,196,-280,420,-70,31
2,157,1757714292275,5,971,-132,196,-140,630,-350,31
2,157,1757714292275,6,971,-132,196,-350,280,140,31
2,157,1757714292275,7,971,-132,196,-70,840,-560,31
2,157,1757714292275,8,971,-132,196,-350,280,140,31
2,157,1757714292275,9,971,-132,196,-210,560,-210,31
2,158,1757714292442,0,971,-132,196,-140,630,-280,31
2,158,1757714292442,1,971,-132,196,-350,350,-70,31
2,158,1757714292442,2,971,-132,196,-210,560,-280,31
2,158,1757714292442,3,971,-132,196,-210,490,-210,31
2,158,1757714292442,4,971,-132,196,-280,490,-140,31
2,158,1757714292442,5,971,-132,196,-280,560,-210,31
2,158,1757714292442,6,971,-132,196,-210,560,-210,31
2,158,1757714292442,7,971,-132,196,-350,350,0,31
2,158,1757714292442,8,971,-132,196,-70,700,-490,31
2,158,1757714292442,9,971,-132,196,-420,210,210,31
2,159,1757714292609,0,971,-132,196,-70,700,-420,31
2,159,1757714292609,1,971,-132,196,-350,420,0,31
2,159,1757714292609,2,971,-132,196,-210,560,-280,31
2,159,1757714292609,3,971,-132,196,-280,490,-140,31
2,159,1757714292609,4,971,-132,196,-280,490,-210,31
2,159,1757714292609,5,971,-132,196,-210,560,-140,31
2,159,1757714292609,6,971,-132,196,-280,490,-140,31
2,159,1757714292609,7,971,-132,196,-140,630,-280,31
2,159,1757714292609,8,971,-132,196,-350,350,0,31
2,159,1757714292609,9,971,-132,196,-140,700,-350,31
2,161,1757714292942,0,971,-132,196,-280,420,-70,31
2,161,1757714292942,1,971,-132,196,-210,560,-210,31
2,161,1757714292942,2,971,-132,196,-210,560,-210,31
2,161,1757714292942,3,971,-132,196,-280,420,-70,31
2,161,1757714292942,4,971,-132,196,-210,560,-280,31
2,161,1757714292942,5,971,-132,196,-280,420,-70,31
2,161,1757714292942,6,971,-132,196,-280,490,-140,31
2,161,1757714292942,7,971,-132,196,-210,560,-210,31
2,161,1757714292942,8,971,-132,196,-280,490,-140,31
2,161,1757714292942,9,971,-132,196,-280,560,-140,31
2,162,1757714293109,0,971,-132,196,-280,490,-210,31
2,162,1757714293109,1,971,-132,196,-210,560,-140,31
2,162,1757714293109,2,971,-132,196,-280,420,-140,31
2,162,1757714293109,3,971,-132,196,-210,560,-210,31
2,162,1757714293109,4,971,-132,196,-280,420,-70,31
2,162,1757714293109,5,971,-132,196,-210,560,-210,31
2,162,1757714293109,6,971,-132,196,-210,560,-210,31
2,162,1757714293109,7,971,-132,196,-280,490,-140,31
2,162,1757714293109,8,971,-132,196,-280,490,-140,31
2,162,1757714293109,9,971,-132,196,-280,490,-210,31
2,163,1757714293275,0,971,-132,196,-280,490,-210,31
2,163,1757714293275,1,971,-132,196,-280,420,-280,31
2,163,1757714293275,2,971,-132,196,-280,420,-280,31
2,163,1757714293275,3,971,-132,196,-350,420,0,31
2,163,1757714293275,4,971,-132,196,-210,560,-280,31
2,163,1757714293275,5,971,-132,196,-210,490,-140,31
2,163,1757714293275,6,971,-132,196,-350,420,-70,31
2,163,1757714293275,7,971,-132,196,-140,630,-280,31
2,163,1757714293275,8,971,-132,196,-280,420,-140,31
2,163,1757714293275,9,971,-132,196,-210,560,-140,31
2,164,1757714293442,0,971,-132,196,-280,490,-210,31
2,164,1757714293442,1,971,-132,196,-280,490,-140,31
2,164,1757714293442,2,971,-132,196,-210,560,-140,31
2,164,1757714293442,3,971,-132,196,-210,560,-210,31
2,164,1757714293442,4,971,-132,196,-280,490,-70,31
2,164,1757714293442,5,971,-132,196,-210,490,-210,31
2,164,1757714293442,6,971,-132,196,-280,490,-140,31
2,164,1757714293442,7,971,-132,196,-280,420,-140,31
2,164,1757714293442,8,971,-132,196,-210,630,-280,31
2,164,1757714293442,9,971,-132,196,-350,350,0,31
2,165,1757714293609,0,971,-132,196,-210,630,-280,31
2,165,1757714293609,1,971,-132,197,-280,420,-70,31
2,165,1757714293609,2,971,-132,196,-210,560,-210,31
2,165,1757714293609,3,971,-132,196,-210,560,-210,31
2,165,1757714293609,4,971,-132,197,-280,490,-140,31
2,165,1757714293609,5,971,-132,196,-210,560,-210,31
2,165,1757714293609,6,971,-132,197,-280,490,-140,31
2,165,1757714293609,7,971,-132,196,-210,560,-210,31
2,165,1757714293609,8,971,-132,196,-280,490,-140,31
2,165,1757714293609,9,971,-132,197,-210,560,-140,31
2,166,1757714293775,0,971,-132,197,-210,560,-210,31
2,166,1757714293775,1,971,-132,197,-280,420,0,31
2,166,1757714293775,2,971,-132,197,-210,630,-350,31
2,166,1757714293775,3,971,-132,197,-350,350,0,31
2,166,1757714293775,4,971,-132,196,-210,560,-210,31
2,166,1757714293775,5,971,-132,196,-210,490,-210,31
2,166,1757714293775,6,971,-132,196,-280,420,-70,31
2,166,1757714293775,7,971,-132,196,-140,630,-280,31
2,166,1757714293775,8,971,-132,196,-350,420,-70,31
2,166,1757714293775,9,971,-132,196,-210,560,-280,31
2,167,1757714293942,0,971,-132,197,-280,490,-140,31
2,167,1757714293942,1,971,-132,196,-210,560,-210,31
2,167,1757714293942,2,971,-132,196,-210,560,-210,31
2,167,1757714293942,3,971,-132,196,-280,420,-140,31
2,167,1757714293942,4,971,-132,196,-210,560,-210,31
2,167,1757714293942,5,971,-132,196,-280,490,-140,31
2,167,1757714293942,6,971,-132,196,-210,560,-140,31
2,167,1757714293942,7,971,-132,196,-280,420,-140,31
2,167,1757714293942,8,971,-132,196,-210,560,-210,31
2,167,1757714293942,9,971,-132,196,-280,420,-140,31
2,168,1757714294109,0,971,-132,196,-210,560,-210,31
2,168,1757714294109,1,971,-132,197,-280,490,-140,31
2,168,1757714294109,2,971,-132,197,-280,490,-140,31
2,168,1757714294109,3,971,-132,196,-210,560,-210,31
2,168,1757714294109,4,971,-132,196,-280,490,-140,31
2,168,1757714294109,5,971,-132,196,-280,490,-140,31
2,168,1757714294109,6,971,-132,196,-210,490,-210,31
2,168,1757714294109,7,971,-132,196,-210,490,-210,31
2,168,1757714294109,8,971,-132,196,-210,490,-140,31
2,168,1757714294109,9,971,-132,196,-210,490,-140,31
2,169,1757714294275,0,971,-132,196,-210,560,-210,31
2,169,1757714294275,1,971,-132,197,-210,420,-140,31
2,169,1757714294275,2,971,-132,196,-140,700,-420,31
2,169,1757714294275,3,971,-132,196,-420,210,140,31
2,169,1757714294275,4,971,-132,196,-140,700,-420,31
2,169,1757714294275,5,971,-132,196,-280,420,-70,31
2,169,1757714294275,6,971,-132,196,-210,560,-210,31
2,169,1757714294275,7,971,-132,196,-280,420,-140,31
2,169,1757714294275,8,971,-132,196,-210,630,-210,31
2,169,1757714294275,9,971,-132,196,-280,350,-70,31
2,170,1757714294442,0,971,-132,196,-140,700,-350,31
2,170,1757714294442,1,971,-132,196,-350,280,0,31
2,170,1757714294442,2,971,-132,196,-210,630,-280,31
2,170,1757714294442,3,971,-132,196,-280,420,-140,31
2,170,1757714294442,4,971,-132,196,-280,490,-140,31
2,170,1757714294442,5,971,-132,196,-210,560,-280,31
2,170,1757714294442,6,971,-132,197,-280,420,0,31
2,170,1757714294442,7,971,-132,197,-280,490,-140,31
2,170,1757714294442,8,971,-132,197,-280,490,-140,31
2,170,1757714294442,9,971,-132,197,-490,140,210,31
2,171,1757714294609,0,971,-132,197,-490,140,210,31
2,171,1757714294609,1,971,-132,196,-70,840,70,31
2,171,1757714294609,2,971,-132,196,-70,840,70,31
2,171,1757714294609,3,971,-132,196,-210,560,-210,31
2,171,1757714294609,4,971,-132,196,-210,560,-210,31
2,171,1757714294609,5,971,-132,196,-280,420,-140,31
2,171,1757714294609,6,971,-132,196,-280,490,-70,31
2,171,1757714294609,7,971,-132,196,-140,700,-490,31
2,171,1757714294609,8,971,-132,196,-490,210,280,31
2,171,1757714294609,9,971,-132,196,-70,770,-560,31
2,172,1757714294775,0,971,-132,196,-350,350,0,31
2,172,1757714294775,1,971,-132,196,-280,490,-210,31
2,172,1757714294775,2,971,-132,196,-140,700,-350,31
2,172,1757714294775,3,971,-132,196,-490,140,210,31
2,172,1757714294775,4,971,-132,196,-490,140,210,31
2,172,1757714294775,5,971,-132,196,-350,280,70,31
2,172,1757714294775,6,971,-132,196,-210,560,-280,31
2,172,1757714294775,7,971,-132,196,-280,560,-210,31
2,172,1757714294775,8,971,-132,196,-280,420,-70,31
2,172,1757714294775,9,971,-132,197,-210,630,-210,31
2,172,1757714294775,0,971,-132,196,-350,350,0,31
2,172,1757714294775,1,971,-132,196,-280,490,-210,31
2,172,1757714294775,2,971,-132,196,-140,700,-350,31
2,172,1757714294775,3,971,-132,196,-490,140,210,31
2,172,1757714294775,4,971,-132,196,-490,140,210,31
2,172,1757714294775,5,971,-132,196,-350,280,70,31
2,172,1757714294775,6,971,-132,196,-210,560,-280,31
2,172,1757714294775,7,971,-132,196,-280,560,-210,31
2,172,1757714294775,8,971,-132,196,-280,420,-70,31
2,172,1757714294775,9,971,-132,197,-210,630,-210,31
2,173,1757714294942,0,971,-132,197,-280,420,-140,31
2,173,1757714294942,1,971,-132,197,-210,490,-140,31
2,173,1757714294942,2,971,-132,197,-280,490,-210,31
2,173,1757714294942,3,971,-132,197,-210,560,-210,31
2,173,1757714294942,4,971,-132,197,-350,490,-70,31
2,173,1757714294942,5,971,-132,197,-210,630,-280,31
2,173,1757714294942,6,971,-132,197,-420,350,70,31
2,173,1757714294942,7,971,-132,197,-70,840,-490,31
2,173,1757714294942,8,971,-132,197,-490,140,280,31
2,173,1757714294942,9,971,-132,197,-70,840,-560,31
2,174,1757714295109,0,971,-132,197,-420,210,140,31
2,174,1757714295109,1,971,-132,197,-140,700,-350,31
2,174,1757714295109,2,971,-132,197,-280,490,-70,31
2,174,1757714295109,3,971,-132,197,-280,490,-210,31
2,174,1757714295109,4,971,-132,197,-280,490,-70,31
2,174,1757714295109,5,971,-132,197,-210,630,-350,31
2,174,1757714295109,6,971,-132,197,-420,280,140,31
2,174,1757714295109,7,971,-132,197,-70,700,-490,31
2,174,1757714295109,8,971,-132,197,-350,280,140,31
2,174,1757714295109,9,971,-132,197,-140,700,-350,31
2,175,1757714295275,0,971,-132,197,-350,420,-70,31
2,175,1757714295275,1,971,-132,197,-210,560,-210,31
2,175,1757714295275,2,971,-132,197,-210,490,-140,31
2,175,1757714295275,3,971,-132,197,-280,490,-140,31
2,175,1757714295275,4,971,-132,197,-280,490,-140,31
2,175,1757714295275,5,971,-132,197,-210,490,-140,31
2,175,1757714295275,6,971,-132,197,-210,560,-280,31
2,175,1757714295275,7,971,-132,197,-280,490,-70,31
2,175,1757714295275,8,971,-132,197,-210,490,-280,31
2,175,1757714295275,9,971,-132,197,-280,490,-140,31
2,176,1757714295442,0,971,-132,197,-280,350,-70,31
2,176,1757714295442,1,971,-132,197,-70,840,-560,31
2,176,1757714295442,2,971,-132,197,-560,70,420,31
2,176,1757714295442,3,971,-132,197,0,910,-630,31
2,176,1757714295442,4,971,-132,197,-420,280,140,31
2,176,1757714295442,5,971,-132,197,-140,630,-350,31
2,176,1757714295442,6,971,-132,197,-350,350,70,31
2,176,1757714295442,7,971,-132,197,0,910,-630,31
2,176,1757714295442,8,971,-132,197,-560,70,350,31
2,176,1757714295442,9,971,-132,197,-70,700,-490,31
2,177,1757714295609,0,971,-132,197,-350,490,-70,31
2,177,1757714295609,1,971,-132,197,-350,490,-70,31
2,177,1757714295609,2,971,-132,197,-210,560,-210,31
2,177,1757714295609,3,971,-132,197,-210,560,-210,31
2,177,1757714295609,4,971,-132,197,-210,560,-210,31
2,177,1757714295609,5,971,-132,197,-210,560,-210,31
2,177,1757714295609,6,971,-132,197,-280,490,-140,31
2,177,1757714295609,7,971,-132,197,-280,490,-140,31
2,177,1757714295609,8,971,-132,197,-210,560,-210,31
2,177,1757714295609,9,971,-132,197,-280,420,0,31
2,178,1757714295775,0,971,-132,196,-210,420,-70,31
2,178,1757714295775,1,971,-132,197,-490,210,210,31
2,178,1757714295775,2,971,-132,196,-140,840,-420,31
2,178,1757714295775,3,971,-132,197,-280,420,0,31
2,178,1757714295775,4,971,-132,197,-280,420,-140,31
2,178,1757714295775,5,971,-132,197,-210,630,-280,31
2,178,1757714295775,6,971,-132,196,-280,490,-140,31
2,178,1757714295775,7,971,-132,196,-280,420,0,31
2,178,1757714295775,8,971,-132,196,-70,840,-560,31
2,178,1757714295775,9,971,-132,197,-420,210,210,31
2,179,1757714295942,0,971,-132,196,-140,700,-350,31
2,179,1757714295942,1,971,-132,197,-210,490,-210,31
2,179,1757714295942,2,971,-132,197,-210,490,-210,31
2,179,1757714295942,3,971,-132,197,-280,560,-210,31
2,179,1757714295942,4,971,-132,197,-280,560,-210,31
2,179,1757714295942,5,971,-132,197,-420,280,140,31
2,179,1757714295942,6,971,-132,196,-420,280,140,31
2,179,1757714295942,7,971,-132,196,0,350,-70,31
2,179,1757714295942,8,971,-132,197,0,350,-70,31
2,179,1757714295942,9,971,-132,196,-350,490,70,31
2,180,1757714296109,0,971,-132,197,-70,700,-490,31
2,180,1757714296109,1,971,-132,197,-490,0,280,31
2,180,1757714296109,2,971,-132,196,0,980,-770,31
2,180,1757714296109,3,971,-132,196,-490,70,420,31
2,180,1757714296109,4,971,-132,196,-70,840,-490,31
2,180,1757714296109,5,971,-132,197,-140,700,-350,31
2,180,1757714296109,6,971,-132,197,-560,70,420,31
2,180,1757714296109,7,971,-132,197,70,1050,-840,31
2,180,1757714296109,8,971,-132,197,-560,0,490,31
2,180,1757714296109,9,971,-132,197,0,840,-630,31
2,181,1757714296275,0,971,-132,197,-350,350,70,31
2,181,1757714296275,1,971,-132,197,-210,560,-280,31
2,181,1757714296275,2,971,-132,196,-280,560,-140,31
2,181,1757714296275,3,971,-132,196,-210,560,-280,31
2,181,1757714296275,4,971,-132,196,-350,420,0,31
2,181,1757714296275,5,971,-132,197,-140,630,-420,31
2,181,1757714296275,6,971,-132,197,-280,420,0,31
2,181,1757714296275,7,971,-132,197,-210,560,-210,31
2,181,1757714296275,8,971,-132,197,-210,560,-210,31
2,181,1757714296275,9,971,-132,197,-280,420,-70,31
2,182,1757714296442,0,971,-132,197,-210,560,-280,31
2,182,1757714296442,1,971,-132,196,-280,560,-140,31
2,182,1757714296442,2,971,-132,197,-280,420,-140,31
2,182,1757714296442,3,971,-132,197,-280,630,-140,31
2,182,1757714296442,4,971,-132,197,-140,560,-280,31
2,182,1757714296442,5,971,-132,197,-350,210,140,31
2,182,1757714296442,6,971,-132,196,-70,840,-560,31
2,182,1757714296442,7,971,-132,197,-420,350,140,31
2,182,1757714296442,8,971,-132,197,-140,630,-350,31
2,182,1757714296442,9,971,-132,197,-350,420,0,31
2,183,1757714296609,0,971,-132,197,-140,630,-420,31
2,183,1757714296609,1,971,-132,197,-420,280,140,31
2,183,1757714296609,2,971,-132,196,-70,840,-560,31
2,183,1757714296609,3,971,-132,197,-420,140,280,31
2,183,1757714296609,4,971,-132,197,-140,770,-490,31
2,183,1757714296609,5,971,-132,197,-350,350,0,31
2,183,1757714296609,6,971,-132,197,-210,560,-210,31
2,183,1757714296609,7,971,-132,197,-420,280,210,31
2,183,1757714296609,8,971,-132,197,140,1050,-980,31
2,183,1757714296609,9,971,-132,197,-700,-350,630,31
2,184,1757714296775,0,971,-132,197,70,1050,-770,31
2,184,1757714296775,1,971,-132,197,-350,280,0,31
2,184,1757714296775,2,971,-132,197,-350,350,70,31
2,184,1757714296775,3,971,-132,196,-70,840,-560,31
2,184,1757714296775,4,971,-132,196,-420,70,280,31
2,184,1757714296775,5,971,-132,197,0,840,-560,31
2,184,1757714296775,6,971,-132,197,-280,490,-70,31
2,184,1757714296775,7,971,-132,197,-350,280,0,31
2,184,1757714296775,8,971,-132,196,-140,700,-350,31
2,184,1757714296775,9,971,-132,197,-350,420,-70,31
2,185,1757714296942,0,971,-132,196,-280,420,-140,31
2,185,1757714296942,1,971,-132,196,-140,630,-420,31
2,185,1757714296942,2,971,-132,196,-350,210,140,31
2,185,1757714296942,3,971,-132,196,-70,840,-420,31
2,185,1757714296942,4,971,-132,197,-350,350,0,31
2,185,1757714296942,5,971,-132,197,-350,350,0,31
2,185,1757714296942,6,971,-132,197,-210,560,-210,31
2,185,1757714296942,7,971,-132,197,-210,560,-210,31
2,185,1757714296942,8,971,-132,197,-210,560,-210,31
2,185,1757714296942,9,971,-132,197,-490,1400,-1260,31
2,186,1757714297109,0,971,-132,197,-490,1400,-1260,31
2,186,1757714297109,1,971,-132,197,-980,-630,1260,31
2,186,1757714297109,2,971,-132,197,420,1470,-1400,31
2,186,1757714297109,3,971,-132,197,-700,-140,700,31
2,186,1757714297109,4,971,-132,196,0,840,-630,31
2,186,1757714297109,5,971,-132,197,-140,630,-420,31
2,186,1757714297109,6,971,-132,197,-140,630,-420,31
2,186,1757714297109,7,971,-132,196,-420,210,280,31
2,186,1757714297109,8,971,-132,197,210,1190,-1050,31
2,186,1757714297109,9,971,-132,197,-840,-350,980,31
2,187,1757714297275,0,971,-132,196,280,1400,-1260,31
2,187,1757714297275,1,971,-132,197,-700,-140,700,31
2,187,1757714297275,2,971,-132,196,0,910,-700,31
2,187,1757714297275,3,971,-132,196,-420,280,70,31
2,187,1757714297275,4,971,-132,196,-280,560,-210,31
2,187,1757714297275,5,971,-132,196,-280,560,-210,31
2,187,1757714297275,6,971,-132,196,-210,630,-280,31
2,187,1757714297275,7,971,-132,196,-420,210,140,31
2,187,1757714297275,8,971,-132,196,-70,840,-490,31
2,187,1757714297275,9,971,-132,196,-420,280,140,31
2,188,1757714297442,0,971,-132,196,-210,700,-280,31
2,188,1757714297442,1,971,-132,196,-210,560,-210,31
2,188,1757714297442,2,971,-132,196,-280,350,0,31
2,188,1757714297442,3,971,-132,196,-140,630,-350,31
2,188,1757714297442,4,971,-132,196,-280,420,-70,31
2,188,1757714297442,5,971,-132,196,-280,490,-140,31
2,188,1757714297442,6,971,-132,196,0,840,-630,31
2,188,1757714297442,7,971,-132,196,-840,-420,980,31
2,188,1757714297442,8,971,-132,196,490,1610,-1540,31
2,188,1757714297442,9,971,-132,197,-770,-420,910,31
2,188,1757714297442,0,971,-132,196,-210,700,-280,31
2,188,1757714297442,1,971,-132,196,-210,560,-210,31
2,188,1757714297442,2,971,-132,196,-280,350,0,31
2,188,1757714297442,3,971,-132,196,-140,630,-350,31
2,188,1757714297442,4,971,-132,196,-280,420,-70,31
2,188,1757714297442,5,971,-132,196,-280,490,-140,31
2,188,1757714297442,6,971,-132,196,0,840,-630,31
2,188,1757714297442,7,971,-132,196,-840,-420,980,31
2,188,1757714297442,8,971,-132,196,490,1610,-1540,31
2,188,1757714297442,9,971,-132,197,-770,-420,910,31
2,190,1757714297775,0,971,-132,196,-210,490,-140,31
2,190,1757714297775,1,971,-132,196,-210,560,-210,31
2,190,1757714297775,2,971,-132,196,-210,560,-210,31
2,190,1757714297775,3,971,-132,196,-350,350,0,31
2,190,1757714297775,4,971,-132,196,-70,770,-490,31
2,190,1757714297775,5,971,-132,196,-420,280,70,31
2,190,1757714297775,6,971,-132,196,-140,700,-350,31
2,190,1757714297775,7,971,-132,196,-350,420,-70,31
2,190,1757714297775,8,971,-132,196,-210,630,-210,31
2,190,1757714297775,9,971,-132,196,-350,420,-70,31
2,191,1757714297942,0,971,-132,196,-140,630,-350,31
2,191,1757714297942,1,971,-132,196,-350,350,0,31
2,191,1757714297942,2,971,-132,196,-140,630,-280,31
2,191,1757714297942,3,971,-132,196,-350,420,0,31
2,191,1757714297942,4,971,-132,196,-140,630,-350,31
2,191,1757714297942,5,971,-132,196,-420,280,140,31
2,191,1757714297942,6,971,-132,196,-70,770,-490,31
2,191,1757714297942,7,971,-132,196,-350,350,140,31
2,191,1757714297942,8,971,-132,196,-350,350,140,31
2,191,1757714297942,9,971,-132,196,-420,280,140,31
2,191,1757714297942,0,971,-132,196,-140,630,-350,31
2,191,1757714297942,1,971,-132,196,-350,350,0,31
2,191,1757714297942,2,971,-132,196,-140,630,-280,31
2,191,1757714297942,3,971,-132,196,-350,420,0,31
2,191,1757714297942,4,971,-132,196,-140,630,-350,31
2,191,1757714297942,5,971,-132,196,-420,280,140,31
2,191,1757714297942,6,971,-132,196,-70,770,-490,31
2,191,1757714297942,7,971,-132,196,-350,350,140,31
2,191,1757714297942,8,971,-132,196,-350,350,140,31
2,191,1757714297942,9,971,-132,196,-420,280,140,31
2,192,1757714298109,0,971,-132,196,-420,280,140,31
2,192,1757714298109,1,971,-132,196,-280,420,0,31
2,192,1757714298109,2,971,-132,196,-280,420,0,31
2,192,1757714298109,3,971,-132,196,-210,560,-280,31
2,192,1757714298109,4,971,-132,196,-210,560,-280,31
2,192,1757714298109,5,971,-132,196,-280,490,-210,31
2,192,1757714298109,6,971,-132,196,-280,420,-70,31
2,192,1757714298109,7,971,-132,196,-210,630,-280,31
2,192,1757714298109,8,971,-132,196,-280,490,-140,31
2,192,1757714298109,9,971,-132,196,-210,560,-140,31
2,193,1757714298275,0,971,-132,196,-210,560,-210,31
2,193,1757714298275,1,971,-132,196,-280,420,-70,31
2,193,1757714298275,2,971,-132,196,-210,560,-210,31
2,193,1757714298275,3,971,-132,196,-420,280,210,31
2,193,1757714298275,4,971,-132,196,70,1050,-770,31
2,193,1757714298275,5,971,-132,196,-560,0,420,31
2,193,1757714298275,6,971,-132,196,-70,840,-630,31
2,193,1757714298275,7,971,-132,196,-350,420,0,31
2,193,1757714298275,8,971,-132,196,-280,420,-70,31
2,193,1757714298275,9,971,-132,196,-140,630,-280,31
2,195,1757714298609,0,971,-132,196,-280,560,-70,31
2,195,1757714298609,1,971,-132,196,-210,420,-210,31
2,195,1757714298609,2,971,-132,196,-280,420,-70,31
2,195,1757714298609,3,971,-132,196,-210,700,-350,31
2,195,1757714298609,4,971,-132,196,-350,350,0,31
2,195,1757714298609,5,971,-132,196,-210,560,-210,31
2,195,1757714298609,6,971,-132,196,-210,560,-210,31
2,195,1757714298609,7,971,-132,196,-350,420,0,31
2,195,1757714298609,8,971,-132,196,-140,700,-420,31
2,195,1757714298609,9,971,-132,196,-420,280,140,31
2,195,1757714298609,0,971,-132,196,-280,560,-70,31
2,195,1757714298609,1,971,-132,196,-210,420,-210,31
2,195,1757714298609,2,971,-132,196,-280,420,-70,31
2,195,1757714298609,3,971,-132,196,-210,700,-350,31
2,195,1757714298609,4,971,-132,196,-350,350,0,31
2,195,1757714298609,5,971,-132,196,-210,560,-210,31
2,195,1757714298609,6,971,-132,196,-210,560,-210,31
2,195,1757714298609,7,971,-132,196,-350,420,0,31
2,195,1757714298609,8,971,-132,196,-140,700,-420,31
2,195,1757714298609,9,971,-132,196,-420,280,140,31
2,197,1757714298942,0,971,-132,196,-280,490,-140,31
2,197,1757714298942,1,971,-132,196,-280,560,-140,31
2,197,1757714298942,2,971,-132,196,-210,560,-210,31
2,197,1757714298942,3,971,-132,196,-280,350,-70,31
2,197,1757714298942,4,971,-132,196,-210,630,-280,31
2,197,1757714298942,5,971,-132,196,-280,420,-140,31
2,197,1757714298942,6,971,-132,196,-280,490,-140,31
2,197,1757714298942,7,971,-132,196,-210,560,-280,31
2,197,1757714298942,8,971,-132,196,-280,420,-70,31
2,197,1757714298942,9,971,-132,196,-350,210,140,31
2,198,1757714299109,0,971,-132,196,490,1260,-1470,31
2,198,1757714299109,1,971,-132,196,-1330,-840,1680,31
2,198,1757714299109,2,971,-132,196,700,2310,-2030,31
2,198,1757714299109,3,971,-132,196,-1050,-840,1330,31
2,198,1757714299109,4,971,-132,196,140,1260,-980,31
2,198,1757714299109,5,971,-132,196,-350,420,70,31
2,198,1757714299109,6,971,-132,196,-350,280,0,31
2,198,1757714299109,7,971,-132,196,-140,700,-350,31
2,198,1757714299109,8,971,-132,196,-210,560,-350,31
2,198,1757714299109,9,971,-132,196,-490,140,280,31
2,199,1757714299275,0,971,-132,196,70,1050,-840,31
2,199,1757714299275,1,971,-132,196,-630,-70,560,31
2,199,1757714299275,2,971,-132,196,0,980,-770,31
2,199,1757714299275,3,971,-132,196,-350,280,70,31
2,199,1757714299275,4,971,-132,196,-280,490,-140,31
2,199,1757714299275,5,971,-132,196,-140,630,-350,31
2,199,1757714299275,6,971,-132,196,-280,350,0,31
2,199,1757714299275,7,971,-132,196,-280,560,-210,31
2,199,1757714299275,8,971,-132,196,-140,700,-350,31
2,199,1757714299275,9,971,-132,196,-140,700,-350,31
2,200,1757714299442,0,971,-132,196,-70,840,-490,31
2,200,1757714299442,1,971,-132,196,-70,840,-490,31
2,200,1757714299442,2,971,-132,196,-140,700,-350,31
2,200,1757714299442,3,971,-132,196,-140,700,-350,31
2,200,1757714299442,4,971,-132,196,-280,560,-140,31
2,200,1757714299442,5,971,-132,196,-280,560,-140,31
2,200,1757714299442,6,971,-132,196,-280,490,-140,31
2,200,1757714299442,7,971,-132,196,-350,490,0,31
2,200,1757714299442,8,971,-132,196,-350,490,0,31
2,200,1757714299442,9,971,-132,196,70,700,-770,31
2,201,1757714299609,0,971,-132,196,-910,-210,1050,31
2,201,1757714299609,1,971,-132,196,-1260,-1050,1820,31
2,201,1757714299609,2,971,-132,196,630,1890,-1890,31
2,201,1757714299609,3,971,-132,196,-840,-350,1050,31
2,201,1757714299609,4,971,-132,196,140,980,-910,31
2,201,1757714299609,5,971,-132,196,-490,210,420,31
2,201,1757714299609,6,971,-132,196,70,910,-840,31
2,201,1757714299609,7,971,-132,196,-700,-70,700,31
2,201,1757714299609,8,971,-132,196,280,1260,-1190,31
2,201,1757714299609,9,971,-132,196,-840,-350,910,31
2,202,1757714299775,0,971,-132,196,280,1260,-1120,31
2,202,1757714299775,1,971,-132,196,-630,-70,560,31
2,202,1757714299775,2,971,-132,196,0,840,-630,31
2,202,1757714299775,3,971,-132,196,-350,350,140,31
2,202,1757714299775,4,971,-132,196,-350,350,140,31
2,202,1757714299775,5,971,-132,196,-350,350,70,31
2,202,1757714299775,6,971,-132,196,-350,350,70,31
2,202,1757714299775,7,971,-132,196,-490,210,210,31
2,202,1757714299775,8,971,-132,196,-490,210,210,31
2,202,1757714299775,9,971,-132,196,-70,770,-420,31
2,203,1757714299942,0,971,-132,196,-350,350,0,31
2,203,1757714299942,1,971,-132,196,-210,560,-210,31
2,203,1757714299942,2,971,-132,196,-210,560,-210,31
2,203,1757714299942,3,971,-132,196,-280,420,-70,31
2,203,1757714299942,4,971,-132,196,-210,560,-210,31
2,203,1757714299942,5,971,-132,196,-210,560,-210,31
2,203,1757714299942,6,971,-132,196,-350,420,-70,31
2,203,1757714299942,7,971,-132,196,-210,630,-280,31
2,203,1757714299942,8,971,-132,196,-350,350,0,31
2,203,1757714299942,9,971,-132,196,-140,700,-350,31
2,204,1757714300109,0,971,-132,196,-350,350,0,31
2,204,1757714300109,1,971,-132,196,-210,560,-280,31
2,204,1757714300109,2,971,-132,196,-280,560,-140,31
2,204,1757714300109,3,971,-132,196,-280,420,-140,31
2,204,1757714300109,4,971,-132,196,-210,560,-210,31
2,204,1757714300109,5,971,-132,196,-350,420,-70,31
2,204,1757714300109,6,971,-132,196,-140,560,-210,31
2,204,1757714300109,7,971,-132,196,-280,420,-70,31
2,204,1757714300109,8,971,-132,196,-210,560,-210,31
2,204,1757714300109,9,971,-132,196,-280,490,-140,31
2,206,1757714300442,0,971,-132,196,-140,700,-420,31
2,206,1757714300442,1,971,-132,196,-350,350,70,31
2,206,1757714300442,2,971,-132,196,-140,700,-420,31
2,206,1757714300442,3,971,-132,196,-350,350,0,31
2,206,1757714300442,4,971,-132,196,-210,630,-280,31
2,206,1757714300442,5,971,-132,196,-280,420,-70,31
2,206,1757714300442,6,971,-132,196,-210,560,-210,31
2,206,1757714300442,7,971,-132,196,-280,490,-210,31
2,206,1757714300442,8,971,-132,196,-280,490,-140,31
2,206,1757714300442,9,971,-132,196,-210,490,-210,31
2,206,1757714300442,0,971,-132,196,-140,700,-420,31
2,206,1757714300442,1,971,-132,196,-350,350,70,31
2,206,1757714300442,2,971,-132,196,-140,700,-420,31
2,206,1757714300442,3,971,-132,196,-350,350,0,31
2,206,1757714300442,4,971,-132,196,-210,630,-280,31
2,206,1757714300442,5,971,-132,196,-280,420,-70,31
2,206,1757714300442,6,971,-132,196,-210,560,-210,31
2,206,1757714300442,7,971,-132,196,-280,490,-210,31
2,206,1757714300442,8,971,-132,196,-280,490,-140,31
2,206,1757714300442,9,971,-132,196,-210,490,-210,31
2,208,1757714300775,0,971,-132,196,-210,560,-280,31
2,208,1757714300775,1,971,-132,196,-280,560,-140,31
2,208,1757714300775,2,971,-132,196,-280,420,-70,31
2,208,1757714300775,3,971,-132,196,-210,630,-210,31
2,208,1757714300775,4,971,-132,196,-280,420,-70,31
2,208,1757714300775,5,971,-132,196,-210,560,-210,31
2,208,1757714300775,6,971,-132,196,-210,560,-210,31
2,208,1757714300775,7,971,-132,196,-350,420,0,31
2,208,1757714300775,8,971,-132,196,-140,700,-420,31
2,208,1757714300775,9,971,-132,196,-140,700,-420,31
2,209,1757714300942,0,971,-132,196,-140,630,-350,31
2,209,1757714300942,1,971,-132,196,-140,630,-350,31
2,209,1757714300942,2,971,-132,196,-280,490,-140,31
2,209,1757714300942,3,971,-132,196,-280,490,-140,31
2,209,1757714300942,4,971,-132,196,-210,560,-280,31
2,209,1757714300942,5,971,-132,196,-280,630,-210,31
2,209,1757714300942,6,971,-132,196,-420,210,140,31
2,209,1757714300942,7,971,-132,196,0,910,-560,31
2,209,1757714300942,8,971,-132,196,-490,210,210,31
2,209,1757714300942,9,971,-132,196,-70,770,-420,31
2,209,1757714300942,0,971,-132,196,-140,630,-350,31
2,209,1757714300942,1,971,-132,196,-140,630,-350,31
2,209,1757714300942,2,971,-132,196,-280,490,-140,31
2,209,1757714300942,3,971,-132,196,-280,490,-140,31
2,209,1757714300942,4,971,-132,196,-210,560,-280,31
2,209,1757714300942,5,971,-132,196,-280,630,-210,31
2,209,1757714300942,6,971,-132,196,-420,210,140,31
2,209,1757714300942,7,971,-132,196,0,910,-560,31
2,209,1757714300942,8,971,-132,196,-490,210,210,31
2,209,1757714300942,9,971,-132,196,-70,770,-420,31
2,210,1757714301109,0,971,-132,196,-140,700,-350,31
2,210,1757714301109,1,971,-132,196,-350,350,-70,31
2,210,1757714301109,2,971,-132,196,-140,630,-280,31
2,210,1757714301109,3,971,-132,196,-350,420,-70,31
2,210,1757714301109,4,971,-132,196,-140,630,-280,31
2,210,1757714301109,5,971,-132,196,-350,420,0,31
2,210,1757714301109,6,971,-132,196,-210,560,-280,31
2,210,1757714301109,7,971,-132,196,-280,490,-70,31
2,210,1757714301109,8,971,-132,196,-210,560,-280,31
2,210,1757714301109,9,971,-132,196,-280,420,-70,31
2,211,1757714301275,0,971,-132,196,-210,560,-280,31
2,211,1757714301275,1,971,-132,196,-350,420,0,31
2,211,1757714301275,2,971,-132,196,-140,630,-350,31
2,211,1757714301275,3,971,-132,196,-140,630,-350,31
2,211,1757714301275,4,971,-132,196,-210,560,-350,31
2,211,1757714301275,5,971,-132,196,-210,560,-350,31
2,211,1757714301275,6,971,-132,196,-280,490,-140,31
2,211,1757714301275,7,971,-132,196,-280,490,-140,31
2,211,1757714301275,8,971,-132,196,-210,420,-70,31
2,211,1757714301275,9,971,-132,196,-210,420,-70,31
2,212,1757714301442,0,971,-132,196,-210,560,-280,31
2,212,1757714301442,1,971,-132,196,-280,350,-70,31
2,212,1757714301442,2,971,-132,196,-140,700,-350,31
2,212,1757714301442,3,971,-132,196,-350,420,0,31
2,212,1757714301442,4,971,-132,196,-210,560,-210,31
2,212,1757714301442,5,971,-132,196,-280,490,-140,31
2,212,1757714301442,6,971,-132,196,-280,490,-140,31
2,212,1757714301442,7,971,-132,196,-210,560,-210,31
2,212,1757714301442,8,971,-132,196,-280,490,-140,31
2,212,1757714301442,9,971,-132,196,-280,490,-140,31
2,214,1757714301775,0,971,-132,196,-210,490,-140,31
2,214,1757714301775,1,971,-132,196,-280,560,-210,31
2,214,1757714301775,2,971,-132,196,-280,490,-140,31
2,214,1757714301775,3,971,-132,196,-210,560,-210,31
2,214,1757714301775,4,971,-132,196,-280,490,-140,31
2,214,1757714301775,5,971,-132,196,-280,490,-140,31
2,214,1757714301775,6,971,-132,196,-210,560,-210,31
2,214,1757714301775,7,971,-132,196,-280,490,-140,31
2,214,1757714301775,8,971,-132,196,-280,490,-140,31
2,214,1757714301775,9,971,-132,196,-280,560,-140,31
2,215,1757714301942,0,971,-132,196,-210,490,-140,31
2,215,1757714301942,1,971,-132,196,-210,560,-210,31
2,215,1757714301942,2,971,-132,196,-280,490,-140,31
2,215,1757714301942,3,971,-132,196,-210,560,-280,31
2,215,1757714301942,4,971,-132,196,-280,420,-70,31
2,215,1757714301942,5,971,-132,196,-210,560,-210,31
2,215,1757714301942,6,971,-132,196,-280,490,-140,31
2,215,1757714301942,7,971,-132,196,-280,490,-140,31
2,215,1757714301942,8,971,-132,196,-280,560,-210,31
2,215,1757714301942,9,971,-132,196,-280,420,-70,31
2,216,1757714302109,0,971,-132,196,-210,630,-210,31
2,216,1757714302109,1,971,-132,196,-210,490,-140,31
2,216,1757714302109,2,971,-132,196,-280,490,-140,31
2,216,1757714302109,3,971,-132,196,-210,560,-210,31
2,216,1757714302109,4,971,-132,196,-280,490,-140,31
2,216,1757714302109,5,971,-132,196,-280,560,-210,31
2,216,1757714302109,6,971,-132,196,-280,490,-140,31
2,216,1757714302109,7,971,-132,196,-280,490,-140,31
2,216,1757714302109,8,971,-132,196,-210,560,-210,31
2,216,1757714302109,9,971,-132,196,-350,420,-70,31
2,217,1757714302275,0,971,-132,196,-210,630,-280,31
2,217,1757714302275,1,971,-132,196,-350,420,0,31
2,217,1757714302275,2,971,-132,196,-210,630,-280,31
2,217,1757714302275,3,971,-132,196,-350,420,0,31
2,217,1757714302275,4,971,-132,196,-210,490,-210,31
2,217,1757714302275,5,971,-132,196,-140,560,-420,31
2,217,1757714302275,6,971,-132,196,-140,560,-420,31
2,217,1757714302275,7,971,-132,196,-70,840,-490,31
2,217,1757714302275,8,971,-132,196,-70,840,-490,31
2,217,1757714302275,9,971,-132,196,-70,840,-560,31
2,218,1757714302442,0,971,-132,196,-70,840,-560,31
2,218,1757714302442,1,971,-132,196,-420,490,-140,31
2,218,1757714302442,2,971,-132,196,-420,490,-140,31
2,218,1757714302442,3,971,-132,196,-210,630,-350,31
2,218,1757714302442,4,971,-132,196,-350,350,70,31
2,218,1757714302442,5,971,-132,196,-210,700,-350,31
2,218,1757714302442,6,971,-132,196,-350,420,-70,31
2,218,1757714302442,7,971,-132,196,-210,560,-210,31
2,218,1757714302442,8,971,-132,196,-210,490,-210,31
2,218,1757714302442,9,971,-132,196,-280,490,-140,31
2,218,1757714302442,0,971,-132,196,-70,840,-560,31
2,218,1757714302442,1,971,-132,196,-420,490,-140,31
2,218,1757714302442,2,971,-132,196,-420,490,-140,31
2,218,1757714302442,3,971,-132,196,-210,630,-350,31
2,218,1757714302442,4,971,-132,196,-350,350,70,31
2,218,1757714302442,5,971,-132,196,-210,700,-350,31
2,218,1757714302442,6,971,-132,196,-350,420,-70,31
2,218,1757714302442,7,971,-132,196,-210,560,-210,31
2,218,1757714302442,8,971,-132,196,-210,490,-210,31
2,218,1757714302442,9,971,-132,196,-280,490,-140,31
2,219,1757714302609,0,971,-132,196,-210,490,-210,31
2,219,1757714302609,1,971,-132,197,-280,560,-140,31
2,219,1757714302609,2,971,-132,196,-210,490,-210,31
2,219,1757714302609,3,971,-132,196,-280,490,-140,31
2,219,1757714302609,4,971,-132,196,-210,560,-280,31
2,219,1757714302609,5,971,-132,196,-280,420,0,31
2,219,1757714302609,6,971,-132,196,-210,560,-280,31
2,219,1757714302609,7,971,-132,196,-210,490,-140,31
2,219,1757714302609,8,971,-132,196,-280,490,-140,31
2,219,1757714302609,9,971,-132,196,-140,630,-280,31
2,220,1757714302775,0,971,-132,196,-280,420,-70,31
2,220,1757714302775,1,971,-132,196,-280,560,-140,31
2,220,1757714302775,2,971,-132,196,-280,560,-140,31
2,220,1757714302775,3,971,-132,196,-280,490,-140,31
2,220,1757714302775,4,971,-132,196,-210,490,-140,31
2,220,1757714302775,5,971,-132,196,-210,490,-140,31
2,220,1757714302775,6,971,-132,196,-280,490,-70,31
2,220,1757714302775,7,971,-132,196,-210,560,-210,31
2,220,1757714302775,8,971,-132,196,-280,490,-140,31
2,220,1757714302775,9,971,-132,196,-280,490,-210,31
2,221,1757714302942,0,971,-132,196,-280,490,-140,31
2,221,1757714302942,1,971,-132,196,-350,490,-140,31
2,221,1757714302942,2,971,-132,196,-280,490,-70,31
2,221,1757714302942,3,971,-132,196,-210,630,-280,31
2,221,1757714302942,4,971,-132,196,-280,490,-210,31
2,221,1757714302942,5,971,-132,196,-490,280,280,31
2,221,1757714302942,6,971,-132,196,140,1050,-910,31
2,221,1757714302942,7,971,-132,196,-700,-140,770,31
2,221,1757714302942,8,971,-132,196,140,1120,-910,31
2,221,1757714302942,9,971,-132,196,-560,140,420,31
2,222,1757714303109,0,971,-132,196,-70,840,-490,31
2,222,1757714303109,1,971,-132,196,-350,350,0,31
2,222,1757714303109,2,971,-132,196,-280,490,-70,31
2,222,1757714303109,3,971,-132,196,-140,630,-350,31
2,222,1757714303109,4,971,-132,196,-350,350,0,31
2,222,1757714303109,5,971,-132,196,-210,560,-210,31
2,222,1757714303109,6,971,-132,196,-210,630,-280,31
2,222,1757714303109,7,971,-132,196,-420,280,70,31
2,222,1757714303109,8,971,-132,196,-140,700,-350,31
2,222,1757714303109,9,971,-132,196,-280,420,-140,31
2,223,1757714303275,0,971,-132,196,-350,490,-70,31
2,223,1757714303275,1,971,-132,196,-140,700,-420,31
2,223,1757714303275,2,971,-132,196,-350,280,140,31
2,223,1757714303275,3,971,-132,196,-140,700,-420,31
2,223,1757714303275,4,971,-132,196,-350,420,0,31
2,223,1757714303275,5,971,-132,196,-210,560,-280,31
2,223,1757714303275,6,971,-132,196,-280,560,-140,31
2,223,1757714303275,7,971,-132,196,-210,490,-210,31
2,223,1757714303275,8,971,-132,196,-280,420,0,31
2,223,1757714303275,9,971,-132,196,-140,630,-350,31
2,224,1757714303442,0,971,-132,196,-420,280,70,31
2,224,1757714303442,1,971,-132,196,-140,700,-350,31
2,224,1757714303442,2,971,-132,196,-140,700,-350,31
2,224,1757714303442,3,971,-132,196,-280,560,-210,31
2,224,1757714303442,4,971,-132,196,-280,560,-210,31
2,224,1757714303442,5,971,-132,196,-210,560,-210,31
2,224,1757714303442,6,971,-132,196,-210,560,-210,31
2,224,1757714303442,7,971,-132,196,-210,490,-140,31
2,224,1757714303442,8,971,-132,196,-280,420,-140,31
2,224,1757714303442,9,971,-132,196,-210,560,-210,31
2,225,1757714303609,0,971,-132,196,-280,420,-70,31
2,225,1757714303609,1,971,-132,196,-140,700,-350,31
2,225,1757714303609,2,971,-132,196,-420,280,140,31
2,225,1757714303609,3,971,-132,196,-140,700,-420,31
2,225,1757714303609,4,971,-132,196,-350,350,0,31
2,225,1757714303609,5,971,-132,196,-140,630,-280,31
2,225,1757714303609,6,971,-132,196,-280,420,-70,31
2,225,1757714303609,7,971,-132,196,-210,420,-140,31
2,225,1757714303609,8,971,-132,196,-70,840,-560,31
2,225,1757714303609,9,971,-132,196,-490,210,280,31
2,225,1757714303609,0,971,-132,196,-280,420,-70,31
2,225,1757714303609,1,971,-132,196,-140,700,-350,31
2,225,1757714303609,2,971,-132,196,-420,280,140,31
2,225,1757714303609,3,971,-132,196,-140,700,-420,31
2,225,1757714303609,4,971,-132,196,-350,350,0,31
2,225,1757714303609,5,971,-132,196,-140,630,-280,31
2,225,1757714303609,6,971,-132,196,-280,420,-70,31
2,225,1757714303609,7,971,-132,196,-210,420,-140,31
2,225,1757714303609,8,971,-132,196,-70,840,-560,31
2,225,1757714303609,9,971,-132,196,-490,210,280,31
2,226,1757714303775,0,971,-132,196,-70,840,-560,31
2,226,1757714303775,1,971,-132,196,-420,210,140,31
2,226,1757714303775,2,971,-132,196,-140,630,-280,31
2,226,1757714303775,3,971,-132,196,-140,630,-280,31
2,226,1757714303775,4,971,-132,196,-280,350,70,31
2,226,1757714303775,5,971,-132,196,-280,350,70,31
2,226,1757714303775,6,971,-132,196,-350,420,-70,31
2,226,1757714303775,7,971,-132,196,-350,420,-70,31
2,226,1757714303775,8,971,-132,196,-210,490,-210,31
2,226,1757714303775,9,971,-132,196,-210,490,-210,31
2,227,1757714303942,0,971,-132,196,-280,490,-140,31
2,227,1757714303942,1,971,-132,196,-210,560,-210,31
2,227,1757714303942,2,971,-132,196,-280,490,-70,31
2,227,1757714303942,3,971,-132,196,-210,490,-210,31
2,227,1757714303942,4,971,-132,196,-280,420,-70,31
2,227,1757714303942,5,971,-132,196,-140,700,-420,31
2,227,1757714303942,6,971,-132,196,-420,280,210,31
2,227,1757714303942,7,971,-132,196,-70,700,-490,31
2,227,1757714303942,8,971,-132,196,-280,560,-210,31
2,227,1757714303942,9,971,-132,196,-420,210,140,31
2,228,1757714304109,0,971,-132,196,-70,770,-490,31
2,228,1757714304109,1,971,-132,196,-420,280,140,31
2,228,1757714304109,2,971,-132,196,-140,700,-350,31
